"","ID","Trial","Reaction.Time","Policy","decision","Agency","HI","SI","Control","Partner","block","Age","Education","Ethnicity","Religion","Sex","Persec","SocRef","ICARTot","ICARrt","Order","sd_HI","meanHI","sd_SI","meanSI"
"1","5f4283d149962e4746b32a38",1,5900,2,"UNFAIR",24,49,48,0,"Human","Block 1",21,"College/Sixth Form (A level or equivalent)","""White""","Atheist","Female",16,20,0,1253.5,"Unfair",10.4355162785557,36.3,11.1499875435905,28.1
"2","5f4283d149962e4746b32a38",2,2235,2,"UNFAIR",24,57,36,0,"Human","Block 1",21,"College/Sixth Form (A level or equivalent)","""White""","Atheist","Female",16,20,0,1253.5,"Unfair",10.4355162785557,36.3,11.1499875435905,28.1
"3","5f4283d149962e4746b32a38",3,3359,2,"UNFAIR",24,32,37,0,"Human","Block 1",21,"College/Sixth Form (A level or equivalent)","""White""","Atheist","Female",16,20,0,1253.5,"Unfair",10.4355162785557,36.3,11.1499875435905,28.1
"4","5f4283d149962e4746b32a38",4,1740.00000000001,2,"UNFAIR",24,33,14,0,"Human","Block 1",21,"College/Sixth Form (A level or equivalent)","""White""","Atheist","Female",16,20,0,1253.5,"Unfair",10.4355162785557,36.3,11.1499875435905,28.1
"5","5f4283d149962e4746b32a38",5,1736,2,"UNFAIR",24,37,33,0,"Human","Block 1",21,"College/Sixth Form (A level or equivalent)","""White""","Atheist","Female",16,20,0,1253.5,"Unfair",10.4355162785557,36.3,11.1499875435905,28.1
"6","5f4283d149962e4746b32a38",6,2019.99999999999,2,"FAIR",24,35,22,0,"Human","Block 1",21,"College/Sixth Form (A level or equivalent)","""White""","Atheist","Female",16,20,0,1253.5,"Unfair",10.4355162785557,36.3,11.1499875435905,28.1
"7","5f4283d149962e4746b32a38",7,1887.99999999999,2,"UNFAIR",24,26,16,0,"Human","Block 1",21,"College/Sixth Form (A level or equivalent)","""White""","Atheist","Female",16,20,0,1253.5,"Unfair",10.4355162785557,36.3,11.1499875435905,28.1
"8","5f4283d149962e4746b32a38",8,1885,2,"UNFAIR",24,24,16,0,"Human","Block 1",21,"College/Sixth Form (A level or equivalent)","""White""","Atheist","Female",16,20,0,1253.5,"Unfair",10.4355162785557,36.3,11.1499875435905,28.1
"9","5f4283d149962e4746b32a38",9,1495,2,"UNFAIR",24,42,33,0,"Human","Block 1",21,"College/Sixth Form (A level or equivalent)","""White""","Atheist","Female",16,20,0,1253.5,"Unfair",10.4355162785557,36.3,11.1499875435905,28.1
"10","5f4283d149962e4746b32a38",10,1412.00000000001,2,"FAIR",24,28,26,0,"Human","Block 1",21,"College/Sixth Form (A level or equivalent)","""White""","Atheist","Female",16,20,0,1253.5,"Unfair",10.4355162785557,36.3,11.1499875435905,28.1
"11","5f4283d149962e4746b32a38",11,1468,1,"FAIR",24,30,27,0,"Human","Block 2",21,"College/Sixth Form (A level or equivalent)","""White""","Atheist","Female",16,20,0,1253.5,"Unfair",5.86515131944607,31.2,6.4126610874287,29.7
"12","5f4283d149962e4746b32a38",12,1719,1,"UNFAIR",24,38,45,0,"Human","Block 2",21,"College/Sixth Form (A level or equivalent)","""White""","Atheist","Female",16,20,0,1253.5,"Unfair",5.86515131944607,31.2,6.4126610874287,29.7
"13","5f4283d149962e4746b32a38",13,1362.00000000001,1,"FAIR",24,28,27,0,"Human","Block 2",21,"College/Sixth Form (A level or equivalent)","""White""","Atheist","Female",16,20,0,1253.5,"Unfair",5.86515131944607,31.2,6.4126610874287,29.7
"14","5f4283d149962e4746b32a38",14,1187.99999999999,1,"FAIR",24,26,30,0,"Human","Block 2",21,"College/Sixth Form (A level or equivalent)","""White""","Atheist","Female",16,20,0,1253.5,"Unfair",5.86515131944607,31.2,6.4126610874287,29.7
"15","5f4283d149962e4746b32a38",15,1163,1,"FAIR",24,31,30,0,"Human","Block 2",21,"College/Sixth Form (A level or equivalent)","""White""","Atheist","Female",16,20,0,1253.5,"Unfair",5.86515131944607,31.2,6.4126610874287,29.7
"16","5f4283d149962e4746b32a38",16,1512,1,"FAIR",24,29,32,0,"Human","Block 2",21,"College/Sixth Form (A level or equivalent)","""White""","Atheist","Female",16,20,0,1253.5,"Unfair",5.86515131944607,31.2,6.4126610874287,29.7
"17","5f4283d149962e4746b32a38",17,2047,1,"FAIR",24,28,20,0,"Human","Block 2",21,"College/Sixth Form (A level or equivalent)","""White""","Atheist","Female",16,20,0,1253.5,"Unfair",5.86515131944607,31.2,6.4126610874287,29.7
"18","5f4283d149962e4746b32a38",18,1094,1,"UNFAIR",24,30,26,0,"Human","Block 2",21,"College/Sixth Form (A level or equivalent)","""White""","Atheist","Female",16,20,0,1253.5,"Unfair",5.86515131944607,31.2,6.4126610874287,29.7
"19","5f4283d149962e4746b32a38",19,1213,1,"FAIR",24,27,32,0,"Human","Block 2",21,"College/Sixth Form (A level or equivalent)","""White""","Atheist","Female",16,20,0,1253.5,"Unfair",5.86515131944607,31.2,6.4126610874287,29.7
"20","5f4283d149962e4746b32a38",20,1752.00000000001,1,"FAIR",24,45,28,0,"Human","Block 2",21,"College/Sixth Form (A level or equivalent)","""White""","Atheist","Female",16,20,0,1253.5,"Unfair",5.86515131944607,31.2,6.4126610874287,29.7
"21","5dc486da84799a35fbede98d",1,23844.6150000673,2,"FAIR",35,12,29,2,"Human","Block 1",43,"Secondary School (GCSE or equivalent)","English/Welsh/Scottish/Northern Irish/British","Atheist","Male",2,4,2,14073.29,"Unfair",44.0309234768273,30.5,22.8142255816166,88.4
"22","5dc486da84799a35fbede98d",2,14436.7899999488,2,"UNFAIR",35,2,99,2,"Human","Block 1",43,"Secondary School (GCSE or equivalent)","English/Welsh/Scottish/Northern Irish/British","Atheist","Male",2,4,2,14073.29,"Unfair",44.0309234768273,30.5,22.8142255816166,88.4
"23","5dc486da84799a35fbede98d",3,6237.26499988697,2,"UNFAIR",35,2,99,2,"Human","Block 1",43,"Secondary School (GCSE or equivalent)","English/Welsh/Scottish/Northern Irish/British","Atheist","Male",2,4,2,14073.29,"Unfair",44.0309234768273,30.5,22.8142255816166,88.4
"24","5dc486da84799a35fbede98d",4,6859.84500008635,2,"UNFAIR",35,2,98,2,"Human","Block 1",43,"Secondary School (GCSE or equivalent)","English/Welsh/Scottish/Northern Irish/British","Atheist","Male",2,4,2,14073.29,"Unfair",44.0309234768273,30.5,22.8142255816166,88.4
"25","5dc486da84799a35fbede98d",5,5471.54999990016,2,"UNFAIR",35,0,98,2,"Human","Block 1",43,"Secondary School (GCSE or equivalent)","English/Welsh/Scottish/Northern Irish/British","Atheist","Male",2,4,2,14073.29,"Unfair",44.0309234768273,30.5,22.8142255816166,88.4
"26","5dc486da84799a35fbede98d",6,4627.03500012867,2,"UNFAIR",35,3,97,2,"Human","Block 1",43,"Secondary School (GCSE or equivalent)","English/Welsh/Scottish/Northern Irish/British","Atheist","Male",2,4,2,14073.29,"Unfair",44.0309234768273,30.5,22.8142255816166,88.4
"27","5dc486da84799a35fbede98d",7,6511.60999992862,2,"UNFAIR",35,2,99,2,"Human","Block 1",43,"Secondary School (GCSE or equivalent)","English/Welsh/Scottish/Northern Irish/British","Atheist","Male",2,4,2,14073.29,"Unfair",44.0309234768273,30.5,22.8142255816166,88.4
"28","5dc486da84799a35fbede98d",8,12838.0199999083,2,"FAIR",35,87,69,2,"Human","Block 1",43,"Secondary School (GCSE or equivalent)","English/Welsh/Scottish/Northern Irish/British","Atheist","Male",2,4,2,14073.29,"Unfair",44.0309234768273,30.5,22.8142255816166,88.4
"29","5dc486da84799a35fbede98d",9,11325.7150000427,2,"UNFAIR",35,97,98,2,"Human","Block 1",43,"Secondary School (GCSE or equivalent)","English/Welsh/Scottish/Northern Irish/British","Atheist","Male",2,4,2,14073.29,"Unfair",44.0309234768273,30.5,22.8142255816166,88.4
"30","5dc486da84799a35fbede98d",10,4929.41500013694,2,"UNFAIR",35,98,98,2,"Human","Block 1",43,"Secondary School (GCSE or equivalent)","English/Welsh/Scottish/Northern Irish/British","Atheist","Male",2,4,2,14073.29,"Unfair",44.0309234768273,30.5,22.8142255816166,88.4
"31","5dc486da84799a35fbede98d",11,5859.63500011712,1,"FAIR",35,98,85,2,"Human","Block 2",43,"Secondary School (GCSE or equivalent)","English/Welsh/Scottish/Northern Irish/British","Atheist","Male",2,4,2,14073.29,"Unfair",6.87669171105473,88.8,6.07453701939498,88.3
"32","5dc486da84799a35fbede98d",12,4183.27000015415,1,"FAIR",35,88,82,2,"Human","Block 2",43,"Secondary School (GCSE or equivalent)","English/Welsh/Scottish/Northern Irish/British","Atheist","Male",2,4,2,14073.29,"Unfair",6.87669171105473,88.8,6.07453701939498,88.3
"33","5dc486da84799a35fbede98d",13,3929.28999988362,1,"FAIR",35,86,85,2,"Human","Block 2",43,"Secondary School (GCSE or equivalent)","English/Welsh/Scottish/Northern Irish/British","Atheist","Male",2,4,2,14073.29,"Unfair",6.87669171105473,88.8,6.07453701939498,88.3
"34","5dc486da84799a35fbede98d",14,3859.14500011131,1,"FAIR",35,86,87,2,"Human","Block 2",43,"Secondary School (GCSE or equivalent)","English/Welsh/Scottish/Northern Irish/British","Atheist","Male",2,4,2,14073.29,"Unfair",6.87669171105473,88.8,6.07453701939498,88.3
"35","5dc486da84799a35fbede98d",15,4295.32000003383,1,"UNFAIR",35,97,99,2,"Human","Block 2",43,"Secondary School (GCSE or equivalent)","English/Welsh/Scottish/Northern Irish/British","Atheist","Male",2,4,2,14073.29,"Unfair",6.87669171105473,88.8,6.07453701939498,88.3
"36","5dc486da84799a35fbede98d",16,3022.10499998182,1,"FAIR",35,81,83,2,"Human","Block 2",43,"Secondary School (GCSE or equivalent)","English/Welsh/Scottish/Northern Irish/British","Atheist","Male",2,4,2,14073.29,"Unfair",6.87669171105473,88.8,6.07453701939498,88.3
"37","5dc486da84799a35fbede98d",17,3571.97499996983,1,"FAIR",35,85,89,2,"Human","Block 2",43,"Secondary School (GCSE or equivalent)","English/Welsh/Scottish/Northern Irish/British","Atheist","Male",2,4,2,14073.29,"Unfair",6.87669171105473,88.8,6.07453701939498,88.3
"38","5dc486da84799a35fbede98d",18,3778.14999991097,1,"FAIR",35,80,89,2,"Human","Block 2",43,"Secondary School (GCSE or equivalent)","English/Welsh/Scottish/Northern Irish/British","Atheist","Male",2,4,2,14073.29,"Unfair",6.87669171105473,88.8,6.07453701939498,88.3
"39","5dc486da84799a35fbede98d",19,3803.4200000111,1,"FAIR",35,88,85,2,"Human","Block 2",43,"Secondary School (GCSE or equivalent)","English/Welsh/Scottish/Northern Irish/British","Atheist","Male",2,4,2,14073.29,"Unfair",6.87669171105473,88.8,6.07453701939498,88.3
"40","5dc486da84799a35fbede98d",20,4390.55999997072,1,"UNFAIR",35,99,99,2,"Human","Block 2",43,"Secondary School (GCSE or equivalent)","English/Welsh/Scottish/Northern Irish/British","Atheist","Male",2,4,2,14073.29,"Unfair",6.87669171105473,88.8,6.07453701939498,88.3
"41","5d893e68f58b17000184839f",1,11600,2,"UNFAIR",29,60,94,2,"Human","Block 1",26,"College/Sixth Form (A level or equivalent)","English/Welsh/Scottish/Northern Irish/British","Atheist","Female",0,8,9,30847.8,"Unfair",15.2756160086736,74.7,14.7199788647191,90.3
"42","5d893e68f58b17000184839f",2,5312,2,"UNFAIR",29,67,89,2,"Human","Block 1",26,"College/Sixth Form (A level or equivalent)","English/Welsh/Scottish/Northern Irish/British","Atheist","Female",0,8,9,30847.8,"Unfair",15.2756160086736,74.7,14.7199788647191,90.3
"43","5d893e68f58b17000184839f",3,3441,2,"UNFAIR",29,78,97,2,"Human","Block 1",26,"College/Sixth Form (A level or equivalent)","English/Welsh/Scottish/Northern Irish/British","Atheist","Female",0,8,9,30847.8,"Unfair",15.2756160086736,74.7,14.7199788647191,90.3
"44","5d893e68f58b17000184839f",4,3390,2,"UNFAIR",29,84,99,2,"Human","Block 1",26,"College/Sixth Form (A level or equivalent)","English/Welsh/Scottish/Northern Irish/British","Atheist","Female",0,8,9,30847.8,"Unfair",15.2756160086736,74.7,14.7199788647191,90.3
"45","5d893e68f58b17000184839f",5,4679,2,"UNFAIR",29,89,99,2,"Human","Block 1",26,"College/Sixth Form (A level or equivalent)","English/Welsh/Scottish/Northern Irish/British","Atheist","Female",0,8,9,30847.8,"Unfair",15.2756160086736,74.7,14.7199788647191,90.3
"46","5d893e68f58b17000184839f",6,6527,2,"FAIR",29,49,56,2,"Human","Block 1",26,"College/Sixth Form (A level or equivalent)","English/Welsh/Scottish/Northern Irish/British","Atheist","Female",0,8,9,30847.8,"Unfair",15.2756160086736,74.7,14.7199788647191,90.3
"47","5d893e68f58b17000184839f",7,4211.99999999999,2,"UNFAIR",29,84,99,2,"Human","Block 1",26,"College/Sixth Form (A level or equivalent)","English/Welsh/Scottish/Northern Irish/British","Atheist","Female",0,8,9,30847.8,"Unfair",15.2756160086736,74.7,14.7199788647191,90.3
"48","5d893e68f58b17000184839f",8,3102,2,"UNFAIR",29,93,99,2,"Human","Block 1",26,"College/Sixth Form (A level or equivalent)","English/Welsh/Scottish/Northern Irish/British","Atheist","Female",0,8,9,30847.8,"Unfair",15.2756160086736,74.7,14.7199788647191,90.3
"49","5d893e68f58b17000184839f",9,3058.99999999999,2,"UNFAIR",29,86,99,2,"Human","Block 1",26,"College/Sixth Form (A level or equivalent)","English/Welsh/Scottish/Northern Irish/British","Atheist","Female",0,8,9,30847.8,"Unfair",15.2756160086736,74.7,14.7199788647191,90.3
"50","5d893e68f58b17000184839f",10,4304,2,"FAIR",29,57,72,2,"Human","Block 1",26,"College/Sixth Form (A level or equivalent)","English/Welsh/Scottish/Northern Irish/British","Atheist","Female",0,8,9,30847.8,"Unfair",15.2756160086736,74.7,14.7199788647191,90.3
"51","5d893e68f58b17000184839f",11,3183.00000000001,1,"FAIR",29,54,66,2,"Human","Block 2",26,"College/Sixth Form (A level or equivalent)","English/Welsh/Scottish/Northern Irish/British","Atheist","Female",0,8,9,30847.8,"Unfair",10.1674863057581,61.4,14.2688471853896,71.4
"52","5d893e68f58b17000184839f",12,2913,1,"FAIR",29,60,71,2,"Human","Block 2",26,"College/Sixth Form (A level or equivalent)","English/Welsh/Scottish/Northern Irish/British","Atheist","Female",0,8,9,30847.8,"Unfair",10.1674863057581,61.4,14.2688471853896,71.4
"53","5d893e68f58b17000184839f",13,2591.00000000001,1,"FAIR",29,58,66,2,"Human","Block 2",26,"College/Sixth Form (A level or equivalent)","English/Welsh/Scottish/Northern Irish/British","Atheist","Female",0,8,9,30847.8,"Unfair",10.1674863057581,61.4,14.2688471853896,71.4
"54","5d893e68f58b17000184839f",14,3972,1,"UNFAIR",29,76,97,2,"Human","Block 2",26,"College/Sixth Form (A level or equivalent)","English/Welsh/Scottish/Northern Irish/British","Atheist","Female",0,8,9,30847.8,"Unfair",10.1674863057581,61.4,14.2688471853896,71.4
"55","5d893e68f58b17000184839f",15,2814,1,"UNFAIR",29,84,98,2,"Human","Block 2",26,"College/Sixth Form (A level or equivalent)","English/Welsh/Scottish/Northern Irish/British","Atheist","Female",0,8,9,30847.8,"Unfair",10.1674863057581,61.4,14.2688471853896,71.4
"56","5d893e68f58b17000184839f",16,3287,1,"FAIR",29,58,68,2,"Human","Block 2",26,"College/Sixth Form (A level or equivalent)","English/Welsh/Scottish/Northern Irish/British","Atheist","Female",0,8,9,30847.8,"Unfair",10.1674863057581,61.4,14.2688471853896,71.4
"57","5d893e68f58b17000184839f",17,3795,1,"FAIR",29,58,66,2,"Human","Block 2",26,"College/Sixth Form (A level or equivalent)","English/Welsh/Scottish/Northern Irish/British","Atheist","Female",0,8,9,30847.8,"Unfair",10.1674863057581,61.4,14.2688471853896,71.4
"58","5d893e68f58b17000184839f",18,2690,1,"FAIR",29,54,64,2,"Human","Block 2",26,"College/Sixth Form (A level or equivalent)","English/Welsh/Scottish/Northern Irish/British","Atheist","Female",0,8,9,30847.8,"Unfair",10.1674863057581,61.4,14.2688471853896,71.4
"59","5d893e68f58b17000184839f",19,3227,1,"FAIR",29,57,61,2,"Human","Block 2",26,"College/Sixth Form (A level or equivalent)","English/Welsh/Scottish/Northern Irish/British","Atheist","Female",0,8,9,30847.8,"Unfair",10.1674863057581,61.4,14.2688471853896,71.4
"60","5d893e68f58b17000184839f",20,3686,1,"FAIR",29,55,57,2,"Human","Block 2",26,"College/Sixth Form (A level or equivalent)","English/Welsh/Scottish/Northern Irish/British","Atheist","Female",0,8,9,30847.8,"Unfair",10.1674863057581,61.4,14.2688471853896,71.4
"61","5d404c6a584cc80017e81001",1,20432.5500018895,2,"UNFAIR",46,97,96,2,"Human","Block 1",57,"Undergraduate Degree (e.g. BSc; MBBS)","English/Welsh/Scottish/Northern Irish/British","Atheist","Female",0,2,3,21260.24,"Unfair",38.9685058020505,77.9,38.6114548346011,78.2
"62","5d404c6a584cc80017e81001",2,18719.1599979997,2,"FAIR",46,3,6,2,"Human","Block 1",57,"Undergraduate Degree (e.g. BSc; MBBS)","English/Welsh/Scottish/Northern Irish/British","Atheist","Female",0,2,3,21260.24,"Unfair",38.9685058020505,77.9,38.6114548346011,78.2
"63","5d404c6a584cc80017e81001",3,9382.34500214458,2,"UNFAIR",46,97,99,2,"Human","Block 1",57,"Undergraduate Degree (e.g. BSc; MBBS)","English/Welsh/Scottish/Northern Irish/British","Atheist","Female",0,2,3,21260.24,"Unfair",38.9685058020505,77.9,38.6114548346011,78.2
"64","5d404c6a584cc80017e81001",4,6708.03000032902,2,"UNFAIR",46,96,97,2,"Human","Block 1",57,"Undergraduate Degree (e.g. BSc; MBBS)","English/Welsh/Scottish/Northern Irish/British","Atheist","Female",0,2,3,21260.24,"Unfair",38.9685058020505,77.9,38.6114548346011,78.2
"65","5d404c6a584cc80017e81001",5,4821.61499932408,2,"UNFAIR",46,98,97,2,"Human","Block 1",57,"Undergraduate Degree (e.g. BSc; MBBS)","English/Welsh/Scottish/Northern Irish/British","Atheist","Female",0,2,3,21260.24,"Unfair",38.9685058020505,77.9,38.6114548346011,78.2
"66","5d404c6a584cc80017e81001",6,5613.05999755859,2,"UNFAIR",46,97,97,2,"Human","Block 1",57,"Undergraduate Degree (e.g. BSc; MBBS)","English/Welsh/Scottish/Northern Irish/British","Atheist","Female",0,2,3,21260.24,"Unfair",38.9685058020505,77.9,38.6114548346011,78.2
"67","5d404c6a584cc80017e81001",7,4408.02999958396,2,"UNFAIR",46,95,97,2,"Human","Block 1",57,"Undergraduate Degree (e.g. BSc; MBBS)","English/Welsh/Scottish/Northern Irish/British","Atheist","Female",0,2,3,21260.24,"Unfair",38.9685058020505,77.9,38.6114548346011,78.2
"68","5d404c6a584cc80017e81001",8,4096.85000032187,2,"UNFAIR",46,97,96,2,"Human","Block 1",57,"Undergraduate Degree (e.g. BSc; MBBS)","English/Welsh/Scottish/Northern Irish/British","Atheist","Female",0,2,3,21260.24,"Unfair",38.9685058020505,77.9,38.6114548346011,78.2
"69","5d404c6a584cc80017e81001",9,9260.68000122905,2,"FAIR",46,5,4,2,"Human","Block 1",57,"Undergraduate Degree (e.g. BSc; MBBS)","English/Welsh/Scottish/Northern Irish/British","Atheist","Female",0,2,3,21260.24,"Unfair",38.9685058020505,77.9,38.6114548346011,78.2
"70","5d404c6a584cc80017e81001",10,4928.22000011802,2,"UNFAIR",46,94,93,2,"Human","Block 1",57,"Undergraduate Degree (e.g. BSc; MBBS)","English/Welsh/Scottish/Northern Irish/British","Atheist","Female",0,2,3,21260.24,"Unfair",38.9685058020505,77.9,38.6114548346011,78.2
"71","5d404c6a584cc80017e81001",11,5490.73500186205,1,"FAIR",46,6,7,2,"Human","Block 2",57,"Undergraduate Degree (e.g. BSc; MBBS)","English/Welsh/Scottish/Northern Irish/British","Atheist","Female",0,2,3,21260.24,"Unfair",37.2333482542495,21.9,37.2910474808931,22.8
"72","5d404c6a584cc80017e81001",12,5206.97499811649,1,"UNFAIR",46,91,93,2,"Human","Block 2",57,"Undergraduate Degree (e.g. BSc; MBBS)","English/Welsh/Scottish/Northern Irish/British","Atheist","Female",0,2,3,21260.24,"Unfair",37.2333482542495,21.9,37.2910474808931,22.8
"73","5d404c6a584cc80017e81001",13,7275.86499974132,1,"FAIR",46,6,8,2,"Human","Block 2",57,"Undergraduate Degree (e.g. BSc; MBBS)","English/Welsh/Scottish/Northern Irish/British","Atheist","Female",0,2,3,21260.24,"Unfair",37.2333482542495,21.9,37.2910474808931,22.8
"74","5d404c6a584cc80017e81001",14,5598.51000085473,1,"FAIR",46,3,5,2,"Human","Block 2",57,"Undergraduate Degree (e.g. BSc; MBBS)","English/Welsh/Scottish/Northern Irish/British","Atheist","Female",0,2,3,21260.24,"Unfair",37.2333482542495,21.9,37.2910474808931,22.8
"75","5d404c6a584cc80017e81001",15,4637.14500144124,1,"FAIR",46,3,5,2,"Human","Block 2",57,"Undergraduate Degree (e.g. BSc; MBBS)","English/Welsh/Scottish/Northern Irish/British","Atheist","Female",0,2,3,21260.24,"Unfair",37.2333482542495,21.9,37.2910474808931,22.8
"76","5d404c6a584cc80017e81001",16,6301.60500109196,1,"FAIR",46,3,4,2,"Human","Block 2",57,"Undergraduate Degree (e.g. BSc; MBBS)","English/Welsh/Scottish/Northern Irish/British","Atheist","Female",0,2,3,21260.24,"Unfair",37.2333482542495,21.9,37.2910474808931,22.8
"77","5d404c6a584cc80017e81001",17,4648.99000152946,1,"FAIR",46,4,4,2,"Human","Block 2",57,"Undergraduate Degree (e.g. BSc; MBBS)","English/Welsh/Scottish/Northern Irish/British","Atheist","Female",0,2,3,21260.24,"Unfair",37.2333482542495,21.9,37.2910474808931,22.8
"78","5d404c6a584cc80017e81001",18,4620.09499967098,1,"UNFAIR",46,94,94,2,"Human","Block 2",57,"Undergraduate Degree (e.g. BSc; MBBS)","English/Welsh/Scottish/Northern Irish/British","Atheist","Female",0,2,3,21260.24,"Unfair",37.2333482542495,21.9,37.2910474808931,22.8
"79","5d404c6a584cc80017e81001",19,4318.19500029087,1,"FAIR",46,4,5,2,"Human","Block 2",57,"Undergraduate Degree (e.g. BSc; MBBS)","English/Welsh/Scottish/Northern Irish/British","Atheist","Female",0,2,3,21260.24,"Unfair",37.2333482542495,21.9,37.2910474808931,22.8
"80","5d404c6a584cc80017e81001",20,4886.52500137687,1,"FAIR",46,5,3,2,"Human","Block 2",57,"Undergraduate Degree (e.g. BSc; MBBS)","English/Welsh/Scottish/Northern Irish/British","Atheist","Female",0,2,3,21260.24,"Unfair",37.2333482542495,21.9,37.2910474808931,22.8
"81","5cb237be9d908d000120453a",1,20959,1,"UNFAIR",74,98,100,2,"Human","Block 1",52,"Undergraduate Degree (e.g. BSc; MBBS)","English/Welsh/Scottish/Northern Irish/British","Christian","Male",17,17,7,22686.2,"Fair",26.2686970450467,48.4,26.9617012321799,48.6
"82","5cb237be9d908d000120453a",2,10980,1,"FAIR",74,33,35,2,"Human","Block 1",52,"Undergraduate Degree (e.g. BSc; MBBS)","English/Welsh/Scottish/Northern Irish/British","Christian","Male",17,17,7,22686.2,"Fair",26.2686970450467,48.4,26.9617012321799,48.6
"83","5cb237be9d908d000120453a",3,4149,1,"FAIR",74,51,51,2,"Human","Block 1",52,"Undergraduate Degree (e.g. BSc; MBBS)","English/Welsh/Scottish/Northern Irish/British","Christian","Male",17,17,7,22686.2,"Fair",26.2686970450467,48.4,26.9617012321799,48.6
"84","5cb237be9d908d000120453a",4,5269,1,"FAIR",74,39,40,2,"Human","Block 1",52,"Undergraduate Degree (e.g. BSc; MBBS)","English/Welsh/Scottish/Northern Irish/British","Christian","Male",17,17,7,22686.2,"Fair",26.2686970450467,48.4,26.9617012321799,48.6
"85","5cb237be9d908d000120453a",5,3717,1,"FAIR",74,32,31,2,"Human","Block 1",52,"Undergraduate Degree (e.g. BSc; MBBS)","English/Welsh/Scottish/Northern Irish/British","Christian","Male",17,17,7,22686.2,"Fair",26.2686970450467,48.4,26.9617012321799,48.6
"86","5cb237be9d908d000120453a",6,5610,1,"FAIR",74,33,34,2,"Human","Block 1",52,"Undergraduate Degree (e.g. BSc; MBBS)","English/Welsh/Scottish/Northern Irish/British","Christian","Male",17,17,7,22686.2,"Fair",26.2686970450467,48.4,26.9617012321799,48.6
"87","5cb237be9d908d000120453a",7,4227,1,"UNFAIR",74,96,97,2,"Human","Block 1",52,"Undergraduate Degree (e.g. BSc; MBBS)","English/Welsh/Scottish/Northern Irish/British","Christian","Male",17,17,7,22686.2,"Fair",26.2686970450467,48.4,26.9617012321799,48.6
"88","5cb237be9d908d000120453a",8,3373,1,"FAIR",74,30,31,2,"Human","Block 1",52,"Undergraduate Degree (e.g. BSc; MBBS)","English/Welsh/Scottish/Northern Irish/British","Christian","Male",17,17,7,22686.2,"Fair",26.2686970450467,48.4,26.9617012321799,48.6
"89","5cb237be9d908d000120453a",9,10538,1,"FAIR",74,36,35,2,"Human","Block 1",52,"Undergraduate Degree (e.g. BSc; MBBS)","English/Welsh/Scottish/Northern Irish/British","Christian","Male",17,17,7,22686.2,"Fair",26.2686970450467,48.4,26.9617012321799,48.6
"90","5cb237be9d908d000120453a",10,3782,1,"FAIR",74,36,32,2,"Human","Block 1",52,"Undergraduate Degree (e.g. BSc; MBBS)","English/Welsh/Scottish/Northern Irish/British","Christian","Male",17,17,7,22686.2,"Fair",26.2686970450467,48.4,26.9617012321799,48.6
"91","5cb237be9d908d000120453a",11,6498,2,"UNFAIR",74,97,98,2,"Human","Block 2",52,"Undergraduate Degree (e.g. BSc; MBBS)","English/Welsh/Scottish/Northern Irish/British","Christian","Male",17,17,7,22686.2,"Fair",28.8397873316246,84.2,28.6309855459663,84.8
"92","5cb237be9d908d000120453a",12,4696,2,"UNFAIR",74,98,100,2,"Human","Block 2",52,"Undergraduate Degree (e.g. BSc; MBBS)","English/Welsh/Scottish/Northern Irish/British","Christian","Male",17,17,7,22686.2,"Fair",28.8397873316246,84.2,28.6309855459663,84.8
"93","5cb237be9d908d000120453a",13,3984,2,"UNFAIR",74,98,98,2,"Human","Block 2",52,"Undergraduate Degree (e.g. BSc; MBBS)","English/Welsh/Scottish/Northern Irish/British","Christian","Male",17,17,7,22686.2,"Fair",28.8397873316246,84.2,28.6309855459663,84.8
"94","5cb237be9d908d000120453a",14,4535,2,"UNFAIR",74,98,99,2,"Human","Block 2",52,"Undergraduate Degree (e.g. BSc; MBBS)","English/Welsh/Scottish/Northern Irish/British","Christian","Male",17,17,7,22686.2,"Fair",28.8397873316246,84.2,28.6309855459663,84.8
"95","5cb237be9d908d000120453a",15,4195,2,"UNFAIR",74,98,99,2,"Human","Block 2",52,"Undergraduate Degree (e.g. BSc; MBBS)","English/Welsh/Scottish/Northern Irish/British","Christian","Male",17,17,7,22686.2,"Fair",28.8397873316246,84.2,28.6309855459663,84.8
"96","5cb237be9d908d000120453a",16,3839,2,"UNFAIR",74,98,98,2,"Human","Block 2",52,"Undergraduate Degree (e.g. BSc; MBBS)","English/Welsh/Scottish/Northern Irish/British","Christian","Male",17,17,7,22686.2,"Fair",28.8397873316246,84.2,28.6309855459663,84.8
"97","5cb237be9d908d000120453a",17,3537,2,"UNFAIR",74,98,98,2,"Human","Block 2",52,"Undergraduate Degree (e.g. BSc; MBBS)","English/Welsh/Scottish/Northern Irish/British","Christian","Male",17,17,7,22686.2,"Fair",28.8397873316246,84.2,28.6309855459663,84.8
"98","5cb237be9d908d000120453a",18,3795,2,"FAIR",74,28,30,2,"Human","Block 2",52,"Undergraduate Degree (e.g. BSc; MBBS)","English/Welsh/Scottish/Northern Irish/British","Christian","Male",17,17,7,22686.2,"Fair",28.8397873316246,84.2,28.6309855459663,84.8
"99","5cb237be9d908d000120453a",19,4209,2,"FAIR",74,31,31,2,"Human","Block 2",52,"Undergraduate Degree (e.g. BSc; MBBS)","English/Welsh/Scottish/Northern Irish/British","Christian","Male",17,17,7,22686.2,"Fair",28.8397873316246,84.2,28.6309855459663,84.8
"100","5cb237be9d908d000120453a",20,4162,2,"UNFAIR",74,98,97,2,"Human","Block 2",52,"Undergraduate Degree (e.g. BSc; MBBS)","English/Welsh/Scottish/Northern Irish/British","Christian","Male",17,17,7,22686.2,"Fair",28.8397873316246,84.2,28.6309855459663,84.8
"101","5e93f6b64d246b73073c3ba1",1,26030.9000000125,1,"FAIR",44,78,73,0,"Human","Block 1",38,"Postgraduate Degree (e.g. MA; MSc)","""Black / African / Caribbean / Black British""","Christian","Female",0,0,4,19706.7,"Fair",11.1659203730717,78.3,7.94494947889678,72.7
"102","5e93f6b64d246b73073c3ba1",2,17201.4999999665,1,"UNFAIR",44,86,83,0,"Human","Block 1",38,"Postgraduate Degree (e.g. MA; MSc)","""Black / African / Caribbean / Black British""","Christian","Female",0,0,4,19706.7,"Fair",11.1659203730717,78.3,7.94494947889678,72.7
"103","5e93f6b64d246b73073c3ba1",3,18255.9999999939,1,"FAIR",44,83,70,0,"Human","Block 1",38,"Postgraduate Degree (e.g. MA; MSc)","""Black / African / Caribbean / Black British""","Christian","Female",0,0,4,19706.7,"Fair",11.1659203730717,78.3,7.94494947889678,72.7
"104","5e93f6b64d246b73073c3ba1",4,3408.30000001006,1,"FAIR",44,79,77,0,"Human","Block 1",38,"Postgraduate Degree (e.g. MA; MSc)","""Black / African / Caribbean / Black British""","Christian","Female",0,0,4,19706.7,"Fair",11.1659203730717,78.3,7.94494947889678,72.7
"105","5e93f6b64d246b73073c3ba1",5,5844.79999996256,1,"FAIR",44,66,60,0,"Human","Block 1",38,"Postgraduate Degree (e.g. MA; MSc)","""Black / African / Caribbean / Black British""","Christian","Female",0,0,4,19706.7,"Fair",11.1659203730717,78.3,7.94494947889678,72.7
"106","5e93f6b64d246b73073c3ba1",6,5724.79999996722,1,"FAIR",44,79,80,0,"Human","Block 1",38,"Postgraduate Degree (e.g. MA; MSc)","""Black / African / Caribbean / Black British""","Christian","Female",0,0,4,19706.7,"Fair",11.1659203730717,78.3,7.94494947889678,72.7
"107","5e93f6b64d246b73073c3ba1",7,3786.80000000168,1,"FAIR",44,76,72,0,"Human","Block 1",38,"Postgraduate Degree (e.g. MA; MSc)","""Black / African / Caribbean / Black British""","Christian","Female",0,0,4,19706.7,"Fair",11.1659203730717,78.3,7.94494947889678,72.7
"108","5e93f6b64d246b73073c3ba1",8,17440.3999999631,1,"FAIR",44,58,78,0,"Human","Block 1",38,"Postgraduate Degree (e.g. MA; MSc)","""Black / African / Caribbean / Black British""","Christian","Female",0,0,4,19706.7,"Fair",11.1659203730717,78.3,7.94494947889678,72.7
"109","5e93f6b64d246b73073c3ba1",9,7444.90000000224,1,"UNFAIR",44,100,59,0,"Human","Block 1",38,"Postgraduate Degree (e.g. MA; MSc)","""Black / African / Caribbean / Black British""","Christian","Female",0,0,4,19706.7,"Fair",11.1659203730717,78.3,7.94494947889678,72.7
"110","5e93f6b64d246b73073c3ba1",10,7300.59999995865,1,"FAIR",44,78,75,0,"Human","Block 1",38,"Postgraduate Degree (e.g. MA; MSc)","""Black / African / Caribbean / Black British""","Christian","Female",0,0,4,19706.7,"Fair",11.1659203730717,78.3,7.94494947889678,72.7
"111","5e93f6b64d246b73073c3ba1",11,6284.89999996964,2,"UNFAIR",44,96,53,0,"Human","Block 2",38,"Postgraduate Degree (e.g. MA; MSc)","""Black / African / Caribbean / Black British""","Christian","Female",0,0,4,19706.7,"Fair",19.4390786247131,82.9,15.204166095734,64.5
"112","5e93f6b64d246b73073c3ba1",12,6647.40000001621,2,"UNFAIR",44,100,56,0,"Human","Block 2",38,"Postgraduate Degree (e.g. MA; MSc)","""Black / African / Caribbean / Black British""","Christian","Female",0,0,4,19706.7,"Fair",19.4390786247131,82.9,15.204166095734,64.5
"113","5e93f6b64d246b73073c3ba1",13,5833.69999995921,2,"UNFAIR",44,94,44,0,"Human","Block 2",38,"Postgraduate Degree (e.g. MA; MSc)","""Black / African / Caribbean / Black British""","Christian","Female",0,0,4,19706.7,"Fair",19.4390786247131,82.9,15.204166095734,64.5
"114","5e93f6b64d246b73073c3ba1",14,4723.20000000764,2,"UNFAIR",44,93,56,0,"Human","Block 2",38,"Postgraduate Degree (e.g. MA; MSc)","""Black / African / Caribbean / Black British""","Christian","Female",0,0,4,19706.7,"Fair",19.4390786247131,82.9,15.204166095734,64.5
"115","5e93f6b64d246b73073c3ba1",15,6933.20000002859,2,"FAIR",44,78,72,0,"Human","Block 2",38,"Postgraduate Degree (e.g. MA; MSc)","""Black / African / Caribbean / Black British""","Christian","Female",0,0,4,19706.7,"Fair",19.4390786247131,82.9,15.204166095734,64.5
"116","5e93f6b64d246b73073c3ba1",16,4940.39999996312,2,"UNFAIR",44,57,80,0,"Human","Block 2",38,"Postgraduate Degree (e.g. MA; MSc)","""Black / African / Caribbean / Black British""","Christian","Female",0,0,4,19706.7,"Fair",19.4390786247131,82.9,15.204166095734,64.5
"117","5e93f6b64d246b73073c3ba1",17,3471.39999998035,2,"UNFAIR",44,100,86,0,"Human","Block 2",38,"Postgraduate Degree (e.g. MA; MSc)","""Black / African / Caribbean / Black British""","Christian","Female",0,0,4,19706.7,"Fair",19.4390786247131,82.9,15.204166095734,64.5
"118","5e93f6b64d246b73073c3ba1",18,3880.79999998445,2,"FAIR",44,59,59,0,"Human","Block 2",38,"Postgraduate Degree (e.g. MA; MSc)","""Black / African / Caribbean / Black British""","Christian","Female",0,0,4,19706.7,"Fair",19.4390786247131,82.9,15.204166095734,64.5
"119","5e93f6b64d246b73073c3ba1",19,3386.2000000081,2,"UNFAIR",44,99,53,0,"Human","Block 2",38,"Postgraduate Degree (e.g. MA; MSc)","""Black / African / Caribbean / Black British""","Christian","Female",0,0,4,19706.7,"Fair",19.4390786247131,82.9,15.204166095734,64.5
"120","5e93f6b64d246b73073c3ba1",20,8619.99999999534,2,"UNFAIR",44,53,86,0,"Human","Block 2",38,"Postgraduate Degree (e.g. MA; MSc)","""Black / African / Caribbean / Black British""","Christian","Female",0,0,4,19706.7,"Fair",19.4390786247131,82.9,15.204166095734,64.5
"121","5f3d3d4f57b8fe07798fd8b3",1,37916,1,"FAIR",50,70,60,1,"Human","Block 1",23,"College/Sixth Form (A level or equivalent)","English/Welsh/Scottish/Northern Irish/British","Agnostic","Male",15,18,6,18924.48,"Fair",24.6981780704569,59,24.0601099101581,57
"122","5f3d3d4f57b8fe07798fd8b3",2,14453,1,"FAIR",50,70,60,1,"Human","Block 1",23,"College/Sixth Form (A level or equivalent)","English/Welsh/Scottish/Northern Irish/British","Agnostic","Male",15,18,6,18924.48,"Fair",24.6981780704569,59,24.0601099101581,57
"123","5f3d3d4f57b8fe07798fd8b3",3,17957,1,"FAIR",50,50,50,1,"Human","Block 1",23,"College/Sixth Form (A level or equivalent)","English/Welsh/Scottish/Northern Irish/British","Agnostic","Male",15,18,6,18924.48,"Fair",24.6981780704569,59,24.0601099101581,57
"124","5f3d3d4f57b8fe07798fd8b3",4,19390,1,"FAIR",50,40,40,1,"Human","Block 1",23,"College/Sixth Form (A level or equivalent)","English/Welsh/Scottish/Northern Irish/British","Agnostic","Male",15,18,6,18924.48,"Fair",24.6981780704569,59,24.0601099101581,57
"125","5f3d3d4f57b8fe07798fd8b3",5,10406,1,"FAIR",50,40,40,1,"Human","Block 1",23,"College/Sixth Form (A level or equivalent)","English/Welsh/Scottish/Northern Irish/British","Agnostic","Male",15,18,6,18924.48,"Fair",24.6981780704569,59,24.0601099101581,57
"126","5f3d3d4f57b8fe07798fd8b3",6,21786,1,"UNFAIR",50,100,100,1,"Human","Block 1",23,"College/Sixth Form (A level or equivalent)","English/Welsh/Scottish/Northern Irish/British","Agnostic","Male",15,18,6,18924.48,"Fair",24.6981780704569,59,24.0601099101581,57
"127","5f3d3d4f57b8fe07798fd8b3",7,8285,1,"FAIR",50,40,40,1,"Human","Block 1",23,"College/Sixth Form (A level or equivalent)","English/Welsh/Scottish/Northern Irish/British","Agnostic","Male",15,18,6,18924.48,"Fair",24.6981780704569,59,24.0601099101581,57
"128","5f3d3d4f57b8fe07798fd8b3",8,21021,1,"FAIR",50,40,40,1,"Human","Block 1",23,"College/Sixth Form (A level or equivalent)","English/Welsh/Scottish/Northern Irish/British","Agnostic","Male",15,18,6,18924.48,"Fair",24.6981780704569,59,24.0601099101581,57
"129","5f3d3d4f57b8fe07798fd8b3",9,22689,1,"FAIR",50,40,40,1,"Human","Block 1",23,"College/Sixth Form (A level or equivalent)","English/Welsh/Scottish/Northern Irish/British","Agnostic","Male",15,18,6,18924.48,"Fair",24.6981780704569,59,24.0601099101581,57
"130","5f3d3d4f57b8fe07798fd8b3",10,4639,1,"UNFAIR",50,100,100,1,"Human","Block 1",23,"College/Sixth Form (A level or equivalent)","English/Welsh/Scottish/Northern Irish/British","Agnostic","Male",15,18,6,18924.48,"Fair",24.6981780704569,59,24.0601099101581,57
"131","5f3d3d4f57b8fe07798fd8b3",11,8205,2,"UNFAIR",50,100,100,1,"Human","Block 2",23,"College/Sixth Form (A level or equivalent)","English/Welsh/Scottish/Northern Irish/British","Agnostic","Male",15,18,6,18924.48,"Fair",17.958284996068,91.5,17.958284996068,91.5
"132","5f3d3d4f57b8fe07798fd8b3",12,4526,2,"UNFAIR",50,100,100,1,"Human","Block 2",23,"College/Sixth Form (A level or equivalent)","English/Welsh/Scottish/Northern Irish/British","Agnostic","Male",15,18,6,18924.48,"Fair",17.958284996068,91.5,17.958284996068,91.5
"133","5f3d3d4f57b8fe07798fd8b3",13,2629,2,"UNFAIR",50,100,100,1,"Human","Block 2",23,"College/Sixth Form (A level or equivalent)","English/Welsh/Scottish/Northern Irish/British","Agnostic","Male",15,18,6,18924.48,"Fair",17.958284996068,91.5,17.958284996068,91.5
"134","5f3d3d4f57b8fe07798fd8b3",14,2473,2,"UNFAIR",50,100,100,1,"Human","Block 2",23,"College/Sixth Form (A level or equivalent)","English/Welsh/Scottish/Northern Irish/British","Agnostic","Male",15,18,6,18924.48,"Fair",17.958284996068,91.5,17.958284996068,91.5
"135","5f3d3d4f57b8fe07798fd8b3",15,2217,2,"UNFAIR",50,100,100,1,"Human","Block 2",23,"College/Sixth Form (A level or equivalent)","English/Welsh/Scottish/Northern Irish/British","Agnostic","Male",15,18,6,18924.48,"Fair",17.958284996068,91.5,17.958284996068,91.5
"136","5f3d3d4f57b8fe07798fd8b3",16,2932,2,"UNFAIR",50,100,100,1,"Human","Block 2",23,"College/Sixth Form (A level or equivalent)","English/Welsh/Scottish/Northern Irish/British","Agnostic","Male",15,18,6,18924.48,"Fair",17.958284996068,91.5,17.958284996068,91.5
"137","5f3d3d4f57b8fe07798fd8b3",17,16366,2,"FAIR",50,55,55,1,"Human","Block 2",23,"College/Sixth Form (A level or equivalent)","English/Welsh/Scottish/Northern Irish/British","Agnostic","Male",15,18,6,18924.48,"Fair",17.958284996068,91.5,17.958284996068,91.5
"138","5f3d3d4f57b8fe07798fd8b3",18,3487.00000000006,2,"UNFAIR",50,100,100,1,"Human","Block 2",23,"College/Sixth Form (A level or equivalent)","English/Welsh/Scottish/Northern Irish/British","Agnostic","Male",15,18,6,18924.48,"Fair",17.958284996068,91.5,17.958284996068,91.5
"139","5f3d3d4f57b8fe07798fd8b3",19,8395.99999999994,2,"FAIR",50,60,60,1,"Human","Block 2",23,"College/Sixth Form (A level or equivalent)","English/Welsh/Scottish/Northern Irish/British","Agnostic","Male",15,18,6,18924.48,"Fair",17.958284996068,91.5,17.958284996068,91.5
"140","5f3d3d4f57b8fe07798fd8b3",20,3841,2,"UNFAIR",50,100,100,1,"Human","Block 2",23,"College/Sixth Form (A level or equivalent)","English/Welsh/Scottish/Northern Irish/British","Agnostic","Male",15,18,6,18924.48,"Fair",17.958284996068,91.5,17.958284996068,91.5
"141","5a69d77a56585a0001633482",1,17719.7849999648,2,"UNFAIR",76,97,2,1,"Human","Block 1",42,"Secondary School (GCSE or equivalent)","English/Welsh/Scottish/Northern Irish/British","Atheist","Male",2,4,4,13928.07,"Unfair",36.3747470399757,69.7,38.4252521136817,69.5
"142","5a69d77a56585a0001633482",2,22184.1450000065,2,"UNFAIR",76,52,97,1,"Human","Block 1",42,"Secondary School (GCSE or equivalent)","English/Welsh/Scottish/Northern Irish/British","Atheist","Male",2,4,4,13928.07,"Unfair",36.3747470399757,69.7,38.4252521136817,69.5
"143","5a69d77a56585a0001633482",3,8788.60999998869,2,"UNFAIR",76,100,99,1,"Human","Block 1",42,"Secondary School (GCSE or equivalent)","English/Welsh/Scottish/Northern Irish/British","Atheist","Male",2,4,4,13928.07,"Unfair",36.3747470399757,69.7,38.4252521136817,69.5
"144","5a69d77a56585a0001633482",4,5590.63999995124,2,"UNFAIR",76,80,78,1,"Human","Block 1",42,"Secondary School (GCSE or equivalent)","English/Welsh/Scottish/Northern Irish/British","Atheist","Male",2,4,4,13928.07,"Unfair",36.3747470399757,69.7,38.4252521136817,69.5
"145","5a69d77a56585a0001633482",5,6535.14499997254,2,"UNFAIR",76,91,91,1,"Human","Block 1",42,"Secondary School (GCSE or equivalent)","English/Welsh/Scottish/Northern Irish/British","Atheist","Male",2,4,4,13928.07,"Unfair",36.3747470399757,69.7,38.4252521136817,69.5
"146","5a69d77a56585a0001633482",6,5586.26000001095,2,"UNFAIR",76,94,95,1,"Human","Block 1",42,"Secondary School (GCSE or equivalent)","English/Welsh/Scottish/Northern Irish/British","Atheist","Male",2,4,4,13928.07,"Unfair",36.3747470399757,69.7,38.4252521136817,69.5
"147","5a69d77a56585a0001633482",7,7707.03499997035,2,"FAIR",76,7,23,1,"Human","Block 1",42,"Secondary School (GCSE or equivalent)","English/Welsh/Scottish/Northern Irish/British","Atheist","Male",2,4,4,13928.07,"Unfair",36.3747470399757,69.7,38.4252521136817,69.5
"148","5a69d77a56585a0001633482",8,3738.81500004791,2,"UNFAIR",76,85,97,1,"Human","Block 1",42,"Secondary School (GCSE or equivalent)","English/Welsh/Scottish/Northern Irish/British","Atheist","Male",2,4,4,13928.07,"Unfair",36.3747470399757,69.7,38.4252521136817,69.5
"149","5a69d77a56585a0001633482",9,7185.75499998406,2,"FAIR",76,4,20,1,"Human","Block 1",42,"Secondary School (GCSE or equivalent)","English/Welsh/Scottish/Northern Irish/British","Atheist","Male",2,4,4,13928.07,"Unfair",36.3747470399757,69.7,38.4252521136817,69.5
"150","5a69d77a56585a0001633482",10,4086.99999999953,2,"UNFAIR",76,87,93,1,"Human","Block 1",42,"Secondary School (GCSE or equivalent)","English/Welsh/Scottish/Northern Irish/British","Atheist","Male",2,4,4,13928.07,"Unfair",36.3747470399757,69.7,38.4252521136817,69.5
"151","5a69d77a56585a0001633482",11,5552.1000000299,1,"FAIR",76,13,3,1,"Human","Block 2",42,"Secondary School (GCSE or equivalent)","English/Welsh/Scottish/Northern Irish/British","Atheist","Male",2,4,4,13928.07,"Unfair",32.5543989176407,20.3,38.6758609758364,25.6
"152","5a69d77a56585a0001633482",12,3177.52000002656,1,"FAIR",76,3,2,1,"Human","Block 2",42,"Secondary School (GCSE or equivalent)","English/Welsh/Scottish/Northern Irish/British","Atheist","Male",2,4,4,13928.07,"Unfair",32.5543989176407,20.3,38.6758609758364,25.6
"153","5a69d77a56585a0001633482",13,3353.10500004562,1,"FAIR",76,5,5,1,"Human","Block 2",42,"Secondary School (GCSE or equivalent)","English/Welsh/Scottish/Northern Irish/British","Atheist","Male",2,4,4,13928.07,"Unfair",32.5543989176407,20.3,38.6758609758364,25.6
"154","5a69d77a56585a0001633482",14,5457.15000003111,1,"FAIR",76,3,16,1,"Human","Block 2",42,"Secondary School (GCSE or equivalent)","English/Welsh/Scottish/Northern Irish/British","Atheist","Male",2,4,4,13928.07,"Unfair",32.5543989176407,20.3,38.6758609758364,25.6
"155","5a69d77a56585a0001633482",15,2651.62000001874,1,"FAIR",76,2,2,1,"Human","Block 2",42,"Secondary School (GCSE or equivalent)","English/Welsh/Scottish/Northern Irish/British","Atheist","Male",2,4,4,13928.07,"Unfair",32.5543989176407,20.3,38.6758609758364,25.6
"156","5a69d77a56585a0001633482",16,2962.91000000201,1,"FAIR",76,7,3,1,"Human","Block 2",42,"Secondary School (GCSE or equivalent)","English/Welsh/Scottish/Northern Irish/British","Atheist","Male",2,4,4,13928.07,"Unfair",32.5543989176407,20.3,38.6758609758364,25.6
"157","5a69d77a56585a0001633482",17,2758.36999999592,1,"FAIR",76,3,4,1,"Human","Block 2",42,"Secondary School (GCSE or equivalent)","English/Welsh/Scottish/Northern Irish/British","Atheist","Male",2,4,4,13928.07,"Unfair",32.5543989176407,20.3,38.6758609758364,25.6
"158","5a69d77a56585a0001633482",18,3480.23500002455,1,"UNFAIR",76,88,96,1,"Human","Block 2",42,"Secondary School (GCSE or equivalent)","English/Welsh/Scottish/Northern Irish/British","Atheist","Male",2,4,4,13928.07,"Unfair",32.5543989176407,20.3,38.6758609758364,25.6
"159","5a69d77a56585a0001633482",19,4499.14999998873,1,"FAIR",76,4,26,1,"Human","Block 2",42,"Secondary School (GCSE or equivalent)","English/Welsh/Scottish/Northern Irish/British","Atheist","Male",2,4,4,13928.07,"Unfair",32.5543989176407,20.3,38.6758609758364,25.6
"160","5a69d77a56585a0001633482",20,2854.37000001548,1,"UNFAIR",76,75,99,1,"Human","Block 2",42,"Secondary School (GCSE or equivalent)","English/Welsh/Scottish/Northern Irish/British","Atheist","Male",2,4,4,13928.07,"Unfair",32.5543989176407,20.3,38.6758609758364,25.6
"161","5ab4e55cf69e940001d8d3bf",1,6713.58499999997,2,"UNFAIR",51,53,51,1,"Human","Block 1",32,"College/Sixth Form (A level or equivalent)","English/Welsh/Scottish/Northern Irish/British","Atheist","Female",7,11,1,7410.3,"Unfair",29.2363928463596,45.1,23.5798878519621,35.7
"162","5ab4e55cf69e940001d8d3bf",2,2922.955,2,"FAIR",51,54,53,1,"Human","Block 1",32,"College/Sixth Form (A level or equivalent)","English/Welsh/Scottish/Northern Irish/British","Atheist","Female",7,11,1,7410.3,"Unfair",29.2363928463596,45.1,23.5798878519621,35.7
"163","5ab4e55cf69e940001d8d3bf",3,2154.22999999987,2,"UNFAIR",51,51,49,1,"Human","Block 1",32,"College/Sixth Form (A level or equivalent)","English/Welsh/Scottish/Northern Irish/British","Atheist","Female",7,11,1,7410.3,"Unfair",29.2363928463596,45.1,23.5798878519621,35.7
"164","5ab4e55cf69e940001d8d3bf",4,5126.68000000008,2,"UNFAIR",51,3,3,1,"Human","Block 1",32,"College/Sixth Form (A level or equivalent)","English/Welsh/Scottish/Northern Irish/British","Atheist","Female",7,11,1,7410.3,"Unfair",29.2363928463596,45.1,23.5798878519621,35.7
"165","5ab4e55cf69e940001d8d3bf",5,4602.77500000006,2,"UNFAIR",51,18,5,1,"Human","Block 1",32,"College/Sixth Form (A level or equivalent)","English/Welsh/Scottish/Northern Irish/British","Atheist","Female",7,11,1,7410.3,"Unfair",29.2363928463596,45.1,23.5798878519621,35.7
"166","5ab4e55cf69e940001d8d3bf",6,2913.40500000001,2,"UNFAIR",51,50,35,1,"Human","Block 1",32,"College/Sixth Form (A level or equivalent)","English/Welsh/Scottish/Northern Irish/British","Atheist","Female",7,11,1,7410.3,"Unfair",29.2363928463596,45.1,23.5798878519621,35.7
"167","5ab4e55cf69e940001d8d3bf",7,6031.56000000012,2,"UNFAIR",51,68,50,1,"Human","Block 1",32,"College/Sixth Form (A level or equivalent)","English/Welsh/Scottish/Northern Irish/British","Atheist","Female",7,11,1,7410.3,"Unfair",29.2363928463596,45.1,23.5798878519621,35.7
"168","5ab4e55cf69e940001d8d3bf",8,2528.30999999991,2,"UNFAIR",51,60,47,1,"Human","Block 1",32,"College/Sixth Form (A level or equivalent)","English/Welsh/Scottish/Northern Irish/British","Atheist","Female",7,11,1,7410.3,"Unfair",29.2363928463596,45.1,23.5798878519621,35.7
"169","5ab4e55cf69e940001d8d3bf",9,2912.965,2,"UNFAIR",51,93,63,1,"Human","Block 1",32,"College/Sixth Form (A level or equivalent)","English/Welsh/Scottish/Northern Irish/British","Atheist","Female",7,11,1,7410.3,"Unfair",29.2363928463596,45.1,23.5798878519621,35.7
"170","5ab4e55cf69e940001d8d3bf",10,4067.47500000006,2,"FAIR",51,1,1,1,"Human","Block 1",32,"College/Sixth Form (A level or equivalent)","English/Welsh/Scottish/Northern Irish/British","Atheist","Female",7,11,1,7410.3,"Unfair",29.2363928463596,45.1,23.5798878519621,35.7
"171","5ab4e55cf69e940001d8d3bf",11,3490.10999999997,1,"FAIR",51,19,20,1,"Human","Block 2",32,"College/Sixth Form (A level or equivalent)","English/Welsh/Scottish/Northern Irish/British","Atheist","Female",7,11,1,7410.3,"Unfair",6.47731082746193,9.2,5.9962951524717,9.8
"172","5ab4e55cf69e940001d8d3bf",12,2643.79499999995,1,"FAIR",51,14,12,1,"Human","Block 2",32,"College/Sixth Form (A level or equivalent)","English/Welsh/Scottish/Northern Irish/British","Atheist","Female",7,11,1,7410.3,"Unfair",6.47731082746193,9.2,5.9962951524717,9.8
"173","5ab4e55cf69e940001d8d3bf",13,2235.94000000002,1,"FAIR",51,14,13,1,"Human","Block 2",32,"College/Sixth Form (A level or equivalent)","English/Welsh/Scottish/Northern Irish/British","Atheist","Female",7,11,1,7410.3,"Unfair",6.47731082746193,9.2,5.9962951524717,9.8
"174","5ab4e55cf69e940001d8d3bf",14,2376.81500000008,1,"FAIR",51,3,1,1,"Human","Block 2",32,"College/Sixth Form (A level or equivalent)","English/Welsh/Scottish/Northern Irish/British","Atheist","Female",7,11,1,7410.3,"Unfair",6.47731082746193,9.2,5.9962951524717,9.8
"175","5ab4e55cf69e940001d8d3bf",15,2615.57999999991,1,"FAIR",51,17,18,1,"Human","Block 2",32,"College/Sixth Form (A level or equivalent)","English/Welsh/Scottish/Northern Irish/British","Atheist","Female",7,11,1,7410.3,"Unfair",6.47731082746193,9.2,5.9962951524717,9.8
"176","5ab4e55cf69e940001d8d3bf",16,3812.185,1,"FAIR",51,3,6,1,"Human","Block 2",32,"College/Sixth Form (A level or equivalent)","English/Welsh/Scottish/Northern Irish/British","Atheist","Female",7,11,1,7410.3,"Unfair",6.47731082746193,9.2,5.9962951524717,9.8
"177","5ab4e55cf69e940001d8d3bf",17,3685.54999999992,1,"FAIR",51,3,8,1,"Human","Block 2",32,"College/Sixth Form (A level or equivalent)","English/Welsh/Scottish/Northern Irish/British","Atheist","Female",7,11,1,7410.3,"Unfair",6.47731082746193,9.2,5.9962951524717,9.8
"178","5ab4e55cf69e940001d8d3bf",18,3186.61999999994,1,"UNFAIR",51,5,4,1,"Human","Block 2",32,"College/Sixth Form (A level or equivalent)","English/Welsh/Scottish/Northern Irish/British","Atheist","Female",7,11,1,7410.3,"Unfair",6.47731082746193,9.2,5.9962951524717,9.8
"179","5ab4e55cf69e940001d8d3bf",19,3980.66500000005,1,"UNFAIR",51,3,7,1,"Human","Block 2",32,"College/Sixth Form (A level or equivalent)","English/Welsh/Scottish/Northern Irish/British","Atheist","Female",7,11,1,7410.3,"Unfair",6.47731082746193,9.2,5.9962951524717,9.8
"180","5ab4e55cf69e940001d8d3bf",20,3260.315,1,"FAIR",51,11,9,1,"Human","Block 2",32,"College/Sixth Form (A level or equivalent)","English/Welsh/Scottish/Northern Irish/British","Atheist","Female",7,11,1,7410.3,"Unfair",6.47731082746193,9.2,5.9962951524717,9.8
"181","5f4f5d8a9468440009ed7a67",1,33231.705000042,2,"UNFAIR",60,0,100,2,"Human","Block 1",19,"College/Sixth Form (A level or equivalent)","Any other white background","Agnostic","Male",21,12,6,40187.1,"Unfair",0,0,12.3490890352285,80.5
"182","5f4f5d8a9468440009ed7a67",2,22617.6600000472,2,"FAIR",60,0,80,2,"Human","Block 1",19,"College/Sixth Form (A level or equivalent)","Any other white background","Agnostic","Male",21,12,6,40187.1,"Unfair",0,0,12.3490890352285,80.5
"183","5f4f5d8a9468440009ed7a67",3,12746.5550000197,2,"FAIR",60,0,55,2,"Human","Block 1",19,"College/Sixth Form (A level or equivalent)","Any other white background","Agnostic","Male",21,12,6,40187.1,"Unfair",0,0,12.3490890352285,80.5
"184","5f4f5d8a9468440009ed7a67",4,9043.14999998314,2,"UNFAIR",60,0,70,2,"Human","Block 1",19,"College/Sixth Form (A level or equivalent)","Any other white background","Agnostic","Male",21,12,6,40187.1,"Unfair",0,0,12.3490890352285,80.5
"185","5f4f5d8a9468440009ed7a67",5,6098.51999999955,2,"UNFAIR",60,0,75,2,"Human","Block 1",19,"College/Sixth Form (A level or equivalent)","Any other white background","Agnostic","Male",21,12,6,40187.1,"Unfair",0,0,12.3490890352285,80.5
"186","5f4f5d8a9468440009ed7a67",6,6191.92000001203,2,"UNFAIR",60,0,80,2,"Human","Block 1",19,"College/Sixth Form (A level or equivalent)","Any other white background","Agnostic","Male",21,12,6,40187.1,"Unfair",0,0,12.3490890352285,80.5
"187","5f4f5d8a9468440009ed7a67",7,4711.75000001676,2,"UNFAIR",60,0,80,2,"Human","Block 1",19,"College/Sixth Form (A level or equivalent)","Any other white background","Agnostic","Male",21,12,6,40187.1,"Unfair",0,0,12.3490890352285,80.5
"188","5f4f5d8a9468440009ed7a67",8,6612.1099999873,2,"UNFAIR",60,0,85,2,"Human","Block 1",19,"College/Sixth Form (A level or equivalent)","Any other white background","Agnostic","Male",21,12,6,40187.1,"Unfair",0,0,12.3490890352285,80.5
"189","5f4f5d8a9468440009ed7a67",9,7962.47500000754,2,"UNFAIR",60,0,90,2,"Human","Block 1",19,"College/Sixth Form (A level or equivalent)","Any other white background","Agnostic","Male",21,12,6,40187.1,"Unfair",0,0,12.3490890352285,80.5
"190","5f4f5d8a9468440009ed7a67",10,5765.32999996562,2,"UNFAIR",60,0,90,2,"Human","Block 1",19,"College/Sixth Form (A level or equivalent)","Any other white background","Agnostic","Male",21,12,6,40187.1,"Unfair",0,0,12.3490890352285,80.5
"191","5f4f5d8a9468440009ed7a67",11,19416.3650000119,1,"FAIR",60,0,50,2,"Human","Block 2",19,"College/Sixth Form (A level or equivalent)","Any other white background","Agnostic","Male",21,12,6,40187.1,"Unfair",0,0,9.20205291105076,56.3
"192","5f4f5d8a9468440009ed7a67",12,7933.0600000103,1,"FAIR",60,0,40,2,"Human","Block 2",19,"College/Sixth Form (A level or equivalent)","Any other white background","Agnostic","Male",21,12,6,40187.1,"Unfair",0,0,9.20205291105076,56.3
"193","5f4f5d8a9468440009ed7a67",13,13826.3000000152,1,"UNFAIR",60,0,70,2,"Human","Block 2",19,"College/Sixth Form (A level or equivalent)","Any other white background","Agnostic","Male",21,12,6,40187.1,"Unfair",0,0,9.20205291105076,56.3
"194","5f4f5d8a9468440009ed7a67",14,6868.72999998741,1,"FAIR",60,0,60,2,"Human","Block 2",19,"College/Sixth Form (A level or equivalent)","Any other white background","Agnostic","Male",21,12,6,40187.1,"Unfair",0,0,9.20205291105076,56.3
"195","5f4f5d8a9468440009ed7a67",15,6125.89999998454,1,"FAIR",60,0,55,2,"Human","Block 2",19,"College/Sixth Form (A level or equivalent)","Any other white background","Agnostic","Male",21,12,6,40187.1,"Unfair",0,0,9.20205291105076,56.3
"196","5f4f5d8a9468440009ed7a67",16,7416.09499999322,1,"UNFAIR",60,0,70,2,"Human","Block 2",19,"College/Sixth Form (A level or equivalent)","Any other white background","Agnostic","Male",21,12,6,40187.1,"Unfair",0,0,9.20205291105076,56.3
"197","5f4f5d8a9468440009ed7a67",17,6942.92499998119,1,"FAIR",60,0,60,2,"Human","Block 2",19,"College/Sixth Form (A level or equivalent)","Any other white background","Agnostic","Male",21,12,6,40187.1,"Unfair",0,0,9.20205291105076,56.3
"198","5f4f5d8a9468440009ed7a67",18,5186.77999998908,1,"FAIR",60,0,55,2,"Human","Block 2",19,"College/Sixth Form (A level or equivalent)","Any other white background","Agnostic","Male",21,12,6,40187.1,"Unfair",0,0,9.20205291105076,56.3
"199","5f4f5d8a9468440009ed7a67",19,9084.54999997048,1,"FAIR",60,0,53,2,"Human","Block 2",19,"College/Sixth Form (A level or equivalent)","Any other white background","Agnostic","Male",21,12,6,40187.1,"Unfair",0,0,9.20205291105076,56.3
"200","5f4f5d8a9468440009ed7a67",20,4640.97000000766,1,"FAIR",60,0,50,2,"Human","Block 2",19,"College/Sixth Form (A level or equivalent)","Any other white background","Agnostic","Male",21,12,6,40187.1,"Unfair",0,0,9.20205291105076,56.3
"201","5e8d804740aaf4000a51d9e9",1,20555.9599999106,1,"FAIR",97,5,53,2,"Human","Block 1",35,"Undergraduate Degree (e.g. BSc; MBBS)","English/Welsh/Scottish/Northern Irish/British","Agnostic","Female",0,4,7,27724.23,"Fair",29.2278406090266,17.6,12.1856017040148,54.4
"202","5e8d804740aaf4000a51d9e9",2,9945.36999997217,1,"FAIR",97,6,47,2,"Human","Block 1",35,"Undergraduate Degree (e.g. BSc; MBBS)","English/Welsh/Scottish/Northern Irish/British","Agnostic","Female",0,4,7,27724.23,"Fair",29.2278406090266,17.6,12.1856017040148,54.4
"203","5e8d804740aaf4000a51d9e9",3,3166.15499998443,1,"FAIR",97,3,49,2,"Human","Block 1",35,"Undergraduate Degree (e.g. BSc; MBBS)","English/Welsh/Scottish/Northern Irish/British","Agnostic","Female",0,4,7,27724.23,"Fair",29.2278406090266,17.6,12.1856017040148,54.4
"204","5e8d804740aaf4000a51d9e9",4,3069.09999996424,1,"FAIR",97,3,48,2,"Human","Block 1",35,"Undergraduate Degree (e.g. BSc; MBBS)","English/Welsh/Scottish/Northern Irish/British","Agnostic","Female",0,4,7,27724.23,"Fair",29.2278406090266,17.6,12.1856017040148,54.4
"205","5e8d804740aaf4000a51d9e9",5,4341.24500001781,1,"FAIR",97,5,48,2,"Human","Block 1",35,"Undergraduate Degree (e.g. BSc; MBBS)","English/Welsh/Scottish/Northern Irish/British","Agnostic","Female",0,4,7,27724.23,"Fair",29.2278406090266,17.6,12.1856017040148,54.4
"206","5e8d804740aaf4000a51d9e9",6,4335.95499990042,1,"FAIR",97,2,48,2,"Human","Block 1",35,"Undergraduate Degree (e.g. BSc; MBBS)","English/Welsh/Scottish/Northern Irish/British","Agnostic","Female",0,4,7,27724.23,"Fair",29.2278406090266,17.6,12.1856017040148,54.4
"207","5e8d804740aaf4000a51d9e9",7,2929.68000005931,1,"FAIR",97,4,47,2,"Human","Block 1",35,"Undergraduate Degree (e.g. BSc; MBBS)","English/Welsh/Scottish/Northern Irish/British","Agnostic","Female",0,4,7,27724.23,"Fair",29.2278406090266,17.6,12.1856017040148,54.4
"208","5e8d804740aaf4000a51d9e9",8,2877.90500000119,1,"FAIR",97,2,50,2,"Human","Block 1",35,"Undergraduate Degree (e.g. BSc; MBBS)","English/Welsh/Scottish/Northern Irish/British","Agnostic","Female",0,4,7,27724.23,"Fair",29.2278406090266,17.6,12.1856017040148,54.4
"209","5e8d804740aaf4000a51d9e9",9,11417.9700000677,1,"UNFAIR",97,73,81,2,"Human","Block 1",35,"Undergraduate Degree (e.g. BSc; MBBS)","English/Welsh/Scottish/Northern Irish/British","Agnostic","Female",0,4,7,27724.23,"Fair",29.2278406090266,17.6,12.1856017040148,54.4
"210","5e8d804740aaf4000a51d9e9",10,3580.06000006571,1,"UNFAIR",97,73,73,2,"Human","Block 1",35,"Undergraduate Degree (e.g. BSc; MBBS)","English/Welsh/Scottish/Northern Irish/British","Agnostic","Female",0,4,7,27724.23,"Fair",29.2278406090266,17.6,12.1856017040148,54.4
"211","5e8d804740aaf4000a51d9e9",11,6303.77500003669,2,"FAIR",97,7,27,2,"Human","Block 2",35,"Undergraduate Degree (e.g. BSc; MBBS)","English/Welsh/Scottish/Northern Irish/British","Agnostic","Female",0,4,7,27724.23,"Fair",31.6980546195925,65.1,23.8560497801105,74
"212","5e8d804740aaf4000a51d9e9",12,8085.00500000082,2,"UNFAIR",97,72,82,2,"Human","Block 2",35,"Undergraduate Degree (e.g. BSc; MBBS)","English/Welsh/Scottish/Northern Irish/British","Agnostic","Female",0,4,7,27724.23,"Fair",31.6980546195925,65.1,23.8560497801105,74
"213","5e8d804740aaf4000a51d9e9",13,7317.95000005513,2,"FAIR",97,9,33,2,"Human","Block 2",35,"Undergraduate Degree (e.g. BSc; MBBS)","English/Welsh/Scottish/Northern Irish/British","Agnostic","Female",0,4,7,27724.23,"Fair",31.6980546195925,65.1,23.8560497801105,74
"214","5e8d804740aaf4000a51d9e9",14,4844.02499999851,2,"UNFAIR",97,59,80,2,"Human","Block 2",35,"Undergraduate Degree (e.g. BSc; MBBS)","English/Welsh/Scottish/Northern Irish/British","Agnostic","Female",0,4,7,27724.23,"Fair",31.6980546195925,65.1,23.8560497801105,74
"215","5e8d804740aaf4000a51d9e9",15,2390.44500002638,2,"UNFAIR",97,71,79,2,"Human","Block 2",35,"Undergraduate Degree (e.g. BSc; MBBS)","English/Welsh/Scottish/Northern Irish/British","Agnostic","Female",0,4,7,27724.23,"Fair",31.6980546195925,65.1,23.8560497801105,74
"216","5e8d804740aaf4000a51d9e9",16,1676.89999996219,2,"UNFAIR",97,82,82,2,"Human","Block 2",35,"Undergraduate Degree (e.g. BSc; MBBS)","English/Welsh/Scottish/Northern Irish/British","Agnostic","Female",0,4,7,27724.23,"Fair",31.6980546195925,65.1,23.8560497801105,74
"217","5e8d804740aaf4000a51d9e9",17,4245.56000006851,2,"UNFAIR",97,81,82,2,"Human","Block 2",35,"Undergraduate Degree (e.g. BSc; MBBS)","English/Welsh/Scottish/Northern Irish/British","Agnostic","Female",0,4,7,27724.23,"Fair",31.6980546195925,65.1,23.8560497801105,74
"218","5e8d804740aaf4000a51d9e9",18,2885.20999997854,2,"UNFAIR",97,89,89,2,"Human","Block 2",35,"Undergraduate Degree (e.g. BSc; MBBS)","English/Welsh/Scottish/Northern Irish/British","Agnostic","Female",0,4,7,27724.23,"Fair",31.6980546195925,65.1,23.8560497801105,74
"219","5e8d804740aaf4000a51d9e9",19,5132.00500002131,2,"UNFAIR",97,91,97,2,"Human","Block 2",35,"Undergraduate Degree (e.g. BSc; MBBS)","English/Welsh/Scottish/Northern Irish/British","Agnostic","Female",0,4,7,27724.23,"Fair",31.6980546195925,65.1,23.8560497801105,74
"220","5e8d804740aaf4000a51d9e9",20,2506.18000002578,2,"UNFAIR",97,90,89,2,"Human","Block 2",35,"Undergraduate Degree (e.g. BSc; MBBS)","English/Welsh/Scottish/Northern Irish/British","Agnostic","Female",0,4,7,27724.23,"Fair",31.6980546195925,65.1,23.8560497801105,74
"221","5e9ec50dee2ccf0009319b7c",1,13990.4499999247,2,"UNFAIR",1,14,89,2,"Human","Block 1",34,"Undergraduate Degree (e.g. BSc; MBBS)","English/Welsh/Scottish/Northern Irish/British","Atheist","Female",1,7,10,31386.67,"Unfair",11.1674129103885,16.6,4.8177911028926,90.1
"222","5e9ec50dee2ccf0009319b7c",2,4343.26500003226,2,"UNFAIR",1,15,89,2,"Human","Block 1",34,"Undergraduate Degree (e.g. BSc; MBBS)","English/Welsh/Scottish/Northern Irish/British","Atheist","Female",1,7,10,31386.67,"Unfair",11.1674129103885,16.6,4.8177911028926,90.1
"223","5e9ec50dee2ccf0009319b7c",3,4069.63499984704,2,"UNFAIR",1,11,90,2,"Human","Block 1",34,"Undergraduate Degree (e.g. BSc; MBBS)","English/Welsh/Scottish/Northern Irish/British","Atheist","Female",1,7,10,31386.67,"Unfair",11.1674129103885,16.6,4.8177911028926,90.1
"224","5e9ec50dee2ccf0009319b7c",4,3392.91499997489,2,"UNFAIR",1,12,91,2,"Human","Block 1",34,"Undergraduate Degree (e.g. BSc; MBBS)","English/Welsh/Scottish/Northern Irish/British","Atheist","Female",1,7,10,31386.67,"Unfair",11.1674129103885,16.6,4.8177911028926,90.1
"225","5e9ec50dee2ccf0009319b7c",5,6138.13999993727,2,"FAIR",1,15,82,2,"Human","Block 1",34,"Undergraduate Degree (e.g. BSc; MBBS)","English/Welsh/Scottish/Northern Irish/British","Atheist","Female",1,7,10,31386.67,"Unfair",11.1674129103885,16.6,4.8177911028926,90.1
"226","5e9ec50dee2ccf0009319b7c",6,3154.89499992691,2,"UNFAIR",1,14,86,2,"Human","Block 1",34,"Undergraduate Degree (e.g. BSc; MBBS)","English/Welsh/Scottish/Northern Irish/British","Atheist","Female",1,7,10,31386.67,"Unfair",11.1674129103885,16.6,4.8177911028926,90.1
"227","5e9ec50dee2ccf0009319b7c",7,4990.88499997742,2,"UNFAIR",1,11,89,2,"Human","Block 1",34,"Undergraduate Degree (e.g. BSc; MBBS)","English/Welsh/Scottish/Northern Irish/British","Atheist","Female",1,7,10,31386.67,"Unfair",11.1674129103885,16.6,4.8177911028926,90.1
"228","5e9ec50dee2ccf0009319b7c",8,3535.08999990299,2,"FAIR",1,48,90,2,"Human","Block 1",34,"Undergraduate Degree (e.g. BSc; MBBS)","English/Welsh/Scottish/Northern Irish/British","Atheist","Female",1,7,10,31386.67,"Unfair",11.1674129103885,16.6,4.8177911028926,90.1
"229","5e9ec50dee2ccf0009319b7c",9,3226.55999986455,2,"UNFAIR",1,15,95,2,"Human","Block 1",34,"Undergraduate Degree (e.g. BSc; MBBS)","English/Welsh/Scottish/Northern Irish/British","Atheist","Female",1,7,10,31386.67,"Unfair",11.1674129103885,16.6,4.8177911028926,90.1
"230","5e9ec50dee2ccf0009319b7c",10,4680.0200000871,2,"UNFAIR",1,11,100,2,"Human","Block 1",34,"Undergraduate Degree (e.g. BSc; MBBS)","English/Welsh/Scottish/Northern Irish/British","Atheist","Female",1,7,10,31386.67,"Unfair",11.1674129103885,16.6,4.8177911028926,90.1
"231","5e9ec50dee2ccf0009319b7c",11,3728.88000006787,1,"FAIR",1,28,85,2,"Human","Block 2",34,"Undergraduate Degree (e.g. BSc; MBBS)","English/Welsh/Scottish/Northern Irish/British","Atheist","Female",1,7,10,31386.67,"Unfair",6.81583124465062,11.3,4.60072458061409,92.5
"232","5e9ec50dee2ccf0009319b7c",12,3179.29999995977,1,"FAIR",1,12,90,2,"Human","Block 2",34,"Undergraduate Degree (e.g. BSc; MBBS)","English/Welsh/Scottish/Northern Irish/British","Atheist","Female",1,7,10,31386.67,"Unfair",6.81583124465062,11.3,4.60072458061409,92.5
"233","5e9ec50dee2ccf0009319b7c",13,2264.16000002064,1,"FAIR",1,14,94,2,"Human","Block 2",34,"Undergraduate Degree (e.g. BSc; MBBS)","English/Welsh/Scottish/Northern Irish/British","Atheist","Female",1,7,10,31386.67,"Unfair",6.81583124465062,11.3,4.60072458061409,92.5
"234","5e9ec50dee2ccf0009319b7c",14,2650.46499995515,1,"FAIR",1,14,84,2,"Human","Block 2",34,"Undergraduate Degree (e.g. BSc; MBBS)","English/Welsh/Scottish/Northern Irish/British","Atheist","Female",1,7,10,31386.67,"Unfair",6.81583124465062,11.3,4.60072458061409,92.5
"235","5e9ec50dee2ccf0009319b7c",15,2416.85000015423,1,"FAIR",1,10,95,2,"Human","Block 2",34,"Undergraduate Degree (e.g. BSc; MBBS)","English/Welsh/Scottish/Northern Irish/British","Atheist","Female",1,7,10,31386.67,"Unfair",6.81583124465062,11.3,4.60072458061409,92.5
"236","5e9ec50dee2ccf0009319b7c",16,2364.6599999629,1,"FAIR",1,7,95,2,"Human","Block 2",34,"Undergraduate Degree (e.g. BSc; MBBS)","English/Welsh/Scottish/Northern Irish/British","Atheist","Female",1,7,10,31386.67,"Unfair",6.81583124465062,11.3,4.60072458061409,92.5
"237","5e9ec50dee2ccf0009319b7c",17,2432.35000013374,1,"FAIR",1,9,94,2,"Human","Block 2",34,"Undergraduate Degree (e.g. BSc; MBBS)","English/Welsh/Scottish/Northern Irish/British","Atheist","Female",1,7,10,31386.67,"Unfair",6.81583124465062,11.3,4.60072458061409,92.5
"238","5e9ec50dee2ccf0009319b7c",18,2273.17499998026,1,"UNFAIR",1,3,95,2,"Human","Block 2",34,"Undergraduate Degree (e.g. BSc; MBBS)","English/Welsh/Scottish/Northern Irish/British","Atheist","Female",1,7,10,31386.67,"Unfair",6.81583124465062,11.3,4.60072458061409,92.5
"239","5e9ec50dee2ccf0009319b7c",19,2445.58999990113,1,"FAIR",1,10,96,2,"Human","Block 2",34,"Undergraduate Degree (e.g. BSc; MBBS)","English/Welsh/Scottish/Northern Irish/British","Atheist","Female",1,7,10,31386.67,"Unfair",6.81583124465062,11.3,4.60072458061409,92.5
"240","5e9ec50dee2ccf0009319b7c",20,2839.25499999896,1,"UNFAIR",1,6,97,2,"Human","Block 2",34,"Undergraduate Degree (e.g. BSc; MBBS)","English/Welsh/Scottish/Northern Irish/British","Atheist","Female",1,7,10,31386.67,"Unfair",6.81583124465062,11.3,4.60072458061409,92.5
"241","5f3c36f298f6eb481d1bd2f4",1,13480.9099999256,2,"FAIR",100,28,63,2,"Human","Block 1",34,"Postgraduate Degree (e.g. MA; MSc)","English/Welsh/Scottish/Northern Irish/British","Atheist","Female",0,6,4,14003.02,"Unfair",12.0646407139026,35,14.1989827491659,86.5
"242","5f3c36f298f6eb481d1bd2f4",2,12068.0050000083,2,"UNFAIR",100,31,75,2,"Human","Block 1",34,"Postgraduate Degree (e.g. MA; MSc)","English/Welsh/Scottish/Northern Irish/British","Atheist","Female",0,6,4,14003.02,"Unfair",12.0646407139026,35,14.1989827491659,86.5
"243","5f3c36f298f6eb481d1bd2f4",3,8144.59499996156,2,"UNFAIR",100,25,65,2,"Human","Block 1",34,"Postgraduate Degree (e.g. MA; MSc)","English/Welsh/Scottish/Northern Irish/British","Atheist","Female",0,6,4,14003.02,"Unfair",12.0646407139026,35,14.1989827491659,86.5
"244","5f3c36f298f6eb481d1bd2f4",4,3757.75999994949,2,"UNFAIR",100,23,90,2,"Human","Block 1",34,"Postgraduate Degree (e.g. MA; MSc)","English/Welsh/Scottish/Northern Irish/British","Atheist","Female",0,6,4,14003.02,"Unfair",12.0646407139026,35,14.1989827491659,86.5
"245","5f3c36f298f6eb481d1bd2f4",5,3310.51500001922,2,"UNFAIR",100,50,98,2,"Human","Block 1",34,"Postgraduate Degree (e.g. MA; MSc)","English/Welsh/Scottish/Northern Irish/British","Atheist","Female",0,6,4,14003.02,"Unfair",12.0646407139026,35,14.1989827491659,86.5
"246","5f3c36f298f6eb481d1bd2f4",6,2795.87000003085,2,"UNFAIR",100,33,98,2,"Human","Block 1",34,"Postgraduate Degree (e.g. MA; MSc)","English/Welsh/Scottish/Northern Irish/British","Atheist","Female",0,6,4,14003.02,"Unfair",12.0646407139026,35,14.1989827491659,86.5
"247","5f3c36f298f6eb481d1bd2f4",7,2531.36499994434,2,"UNFAIR",100,36,99,2,"Human","Block 1",34,"Postgraduate Degree (e.g. MA; MSc)","English/Welsh/Scottish/Northern Irish/British","Atheist","Female",0,6,4,14003.02,"Unfair",12.0646407139026,35,14.1989827491659,86.5
"248","5f3c36f298f6eb481d1bd2f4",8,2757.3750000447,2,"UNFAIR",100,60,98,2,"Human","Block 1",34,"Postgraduate Degree (e.g. MA; MSc)","English/Welsh/Scottish/Northern Irish/British","Atheist","Female",0,6,4,14003.02,"Unfair",12.0646407139026,35,14.1989827491659,86.5
"249","5f3c36f298f6eb481d1bd2f4",9,2956.51499996893,2,"UNFAIR",100,40,96,2,"Human","Block 1",34,"Postgraduate Degree (e.g. MA; MSc)","English/Welsh/Scottish/Northern Irish/British","Atheist","Female",0,6,4,14003.02,"Unfair",12.0646407139026,35,14.1989827491659,86.5
"250","5f3c36f298f6eb481d1bd2f4",10,6826.61499991082,2,"FAIR",100,24,83,2,"Human","Block 1",34,"Postgraduate Degree (e.g. MA; MSc)","English/Welsh/Scottish/Northern Irish/British","Atheist","Female",0,6,4,14003.02,"Unfair",12.0646407139026,35,14.1989827491659,86.5
"251","5f3c36f298f6eb481d1bd2f4",11,3329.87500005402,1,"UNFAIR",100,12,97,2,"Human","Block 2",34,"Postgraduate Degree (e.g. MA; MSc)","English/Welsh/Scottish/Northern Irish/British","Atheist","Female",0,6,4,14003.02,"Unfair",10.3515967635701,37.4,8.54075198354597,91.5
"252","5f3c36f298f6eb481d1bd2f4",12,3310.59999996796,1,"FAIR",100,40,98,2,"Human","Block 2",34,"Postgraduate Degree (e.g. MA; MSc)","English/Welsh/Scottish/Northern Irish/British","Atheist","Female",0,6,4,14003.02,"Unfair",10.3515967635701,37.4,8.54075198354597,91.5
"253","5f3c36f298f6eb481d1bd2f4",13,2104.99999998137,1,"FAIR",100,42,77,2,"Human","Block 2",34,"Postgraduate Degree (e.g. MA; MSc)","English/Welsh/Scottish/Northern Irish/British","Atheist","Female",0,6,4,14003.02,"Unfair",10.3515967635701,37.4,8.54075198354597,91.5
"254","5f3c36f298f6eb481d1bd2f4",14,2942.35499994829,1,"FAIR",100,42,75,2,"Human","Block 2",34,"Postgraduate Degree (e.g. MA; MSc)","English/Welsh/Scottish/Northern Irish/British","Atheist","Female",0,6,4,14003.02,"Unfair",10.3515967635701,37.4,8.54075198354597,91.5
"255","5f3c36f298f6eb481d1bd2f4",15,2766.25499990769,1,"UNFAIR",100,43,95,2,"Human","Block 2",34,"Postgraduate Degree (e.g. MA; MSc)","English/Welsh/Scottish/Northern Irish/British","Atheist","Female",0,6,4,14003.02,"Unfair",10.3515967635701,37.4,8.54075198354597,91.5
"256","5f3c36f298f6eb481d1bd2f4",16,2063.34000010975,1,"FAIR",100,43,89,2,"Human","Block 2",34,"Postgraduate Degree (e.g. MA; MSc)","English/Welsh/Scottish/Northern Irish/British","Atheist","Female",0,6,4,14003.02,"Unfair",10.3515967635701,37.4,8.54075198354597,91.5
"257","5f3c36f298f6eb481d1bd2f4",17,3818.33999999799,1,"FAIR",100,49,96,2,"Human","Block 2",34,"Postgraduate Degree (e.g. MA; MSc)","English/Welsh/Scottish/Northern Irish/British","Atheist","Female",0,6,4,14003.02,"Unfair",10.3515967635701,37.4,8.54075198354597,91.5
"258","5f3c36f298f6eb481d1bd2f4",18,2347.36500005238,1,"FAIR",100,36,97,2,"Human","Block 2",34,"Postgraduate Degree (e.g. MA; MSc)","English/Welsh/Scottish/Northern Irish/British","Atheist","Female",0,6,4,14003.02,"Unfair",10.3515967635701,37.4,8.54075198354597,91.5
"259","5f3c36f298f6eb481d1bd2f4",19,2912.72000013851,1,"FAIR",100,29,95,2,"Human","Block 2",34,"Postgraduate Degree (e.g. MA; MSc)","English/Welsh/Scottish/Northern Irish/British","Atheist","Female",0,6,4,14003.02,"Unfair",10.3515967635701,37.4,8.54075198354597,91.5
"260","5f3c36f298f6eb481d1bd2f4",20,2308.27499995939,1,"FAIR",100,38,96,2,"Human","Block 2",34,"Postgraduate Degree (e.g. MA; MSc)","English/Welsh/Scottish/Northern Irish/British","Atheist","Female",0,6,4,14003.02,"Unfair",10.3515967635701,37.4,8.54075198354597,91.5
"261","5c8bdc00302d6c0016a70680",1,10420,1,"UNFAIR",20,41,85,1,"Human","Block 1",22,"Undergraduate Degree (e.g. BSc; MBBS)","English/Welsh/Scottish/Northern Irish/British","Agnostic","Female",8,20,6,33835.63,"Fair",6.7954232964384,28.8,16.4117166818235,51.7
"262","5c8bdc00302d6c0016a70680",2,4689,1,"FAIR",20,31,52,1,"Human","Block 1",22,"Undergraduate Degree (e.g. BSc; MBBS)","English/Welsh/Scottish/Northern Irish/British","Agnostic","Female",8,20,6,33835.63,"Fair",6.7954232964384,28.8,16.4117166818235,51.7
"263","5c8bdc00302d6c0016a70680",3,2594,1,"FAIR",20,28,41,1,"Human","Block 1",22,"Undergraduate Degree (e.g. BSc; MBBS)","English/Welsh/Scottish/Northern Irish/British","Agnostic","Female",8,20,6,33835.63,"Fair",6.7954232964384,28.8,16.4117166818235,51.7
"264","5c8bdc00302d6c0016a70680",4,2870.00000000001,1,"FAIR",20,25,27,1,"Human","Block 1",22,"Undergraduate Degree (e.g. BSc; MBBS)","English/Welsh/Scottish/Northern Irish/British","Agnostic","Female",8,20,6,33835.63,"Fair",6.7954232964384,28.8,16.4117166818235,51.7
"265","5c8bdc00302d6c0016a70680",5,2951,1,"FAIR",20,29,42,1,"Human","Block 1",22,"Undergraduate Degree (e.g. BSc; MBBS)","English/Welsh/Scottish/Northern Irish/British","Agnostic","Female",8,20,6,33835.63,"Fair",6.7954232964384,28.8,16.4117166818235,51.7
"266","5c8bdc00302d6c0016a70680",6,3567,1,"FAIR",20,20,53,1,"Human","Block 1",22,"Undergraduate Degree (e.g. BSc; MBBS)","English/Welsh/Scottish/Northern Irish/British","Agnostic","Female",8,20,6,33835.63,"Fair",6.7954232964384,28.8,16.4117166818235,51.7
"267","5c8bdc00302d6c0016a70680",7,5144,1,"UNFAIR",20,20,42,1,"Human","Block 1",22,"Undergraduate Degree (e.g. BSc; MBBS)","English/Welsh/Scottish/Northern Irish/British","Agnostic","Female",8,20,6,33835.63,"Fair",6.7954232964384,28.8,16.4117166818235,51.7
"268","5c8bdc00302d6c0016a70680",8,3453,1,"FAIR",20,32,46,1,"Human","Block 1",22,"Undergraduate Degree (e.g. BSc; MBBS)","English/Welsh/Scottish/Northern Irish/British","Agnostic","Female",8,20,6,33835.63,"Fair",6.7954232964384,28.8,16.4117166818235,51.7
"269","5c8bdc00302d6c0016a70680",9,4303,1,"FAIR",20,37,60,1,"Human","Block 1",22,"Undergraduate Degree (e.g. BSc; MBBS)","English/Welsh/Scottish/Northern Irish/British","Agnostic","Female",8,20,6,33835.63,"Fair",6.7954232964384,28.8,16.4117166818235,51.7
"270","5c8bdc00302d6c0016a70680",10,3143,1,"FAIR",20,25,69,1,"Human","Block 1",22,"Undergraduate Degree (e.g. BSc; MBBS)","English/Welsh/Scottish/Northern Irish/British","Agnostic","Female",8,20,6,33835.63,"Fair",6.7954232964384,28.8,16.4117166818235,51.7
"271","5c8bdc00302d6c0016a70680",11,2679.99999999999,2,"UNFAIR",20,32,74,1,"Human","Block 2",22,"Undergraduate Degree (e.g. BSc; MBBS)","English/Welsh/Scottish/Northern Irish/British","Agnostic","Female",8,20,6,33835.63,"Fair",13.287002839032,40.9,9.57136934357415,90.5
"272","5c8bdc00302d6c0016a70680",12,1979,2,"UNFAIR",20,28,81,1,"Human","Block 2",22,"Undergraduate Degree (e.g. BSc; MBBS)","English/Welsh/Scottish/Northern Irish/British","Agnostic","Female",8,20,6,33835.63,"Fair",13.287002839032,40.9,9.57136934357415,90.5
"273","5c8bdc00302d6c0016a70680",13,3151,2,"FAIR",20,29,83,1,"Human","Block 2",22,"Undergraduate Degree (e.g. BSc; MBBS)","English/Welsh/Scottish/Northern Irish/British","Agnostic","Female",8,20,6,33835.63,"Fair",13.287002839032,40.9,9.57136934357415,90.5
"274","5c8bdc00302d6c0016a70680",14,1863,2,"UNFAIR",20,25,86,1,"Human","Block 2",22,"Undergraduate Degree (e.g. BSc; MBBS)","English/Welsh/Scottish/Northern Irish/British","Agnostic","Female",8,20,6,33835.63,"Fair",13.287002839032,40.9,9.57136934357415,90.5
"275","5c8bdc00302d6c0016a70680",15,1653,2,"UNFAIR",20,30,86,1,"Human","Block 2",22,"Undergraduate Degree (e.g. BSc; MBBS)","English/Welsh/Scottish/Northern Irish/British","Agnostic","Female",8,20,6,33835.63,"Fair",13.287002839032,40.9,9.57136934357415,90.5
"276","5c8bdc00302d6c0016a70680",16,2100,2,"UNFAIR",20,45,98,1,"Human","Block 2",22,"Undergraduate Degree (e.g. BSc; MBBS)","English/Welsh/Scottish/Northern Irish/British","Agnostic","Female",8,20,6,33835.63,"Fair",13.287002839032,40.9,9.57136934357415,90.5
"277","5c8bdc00302d6c0016a70680",17,2430,2,"UNFAIR",20,55,98,1,"Human","Block 2",22,"Undergraduate Degree (e.g. BSc; MBBS)","English/Welsh/Scottish/Northern Irish/British","Agnostic","Female",8,20,6,33835.63,"Fair",13.287002839032,40.9,9.57136934357415,90.5
"278","5c8bdc00302d6c0016a70680",18,2078,2,"UNFAIR",20,55,99,1,"Human","Block 2",22,"Undergraduate Degree (e.g. BSc; MBBS)","English/Welsh/Scottish/Northern Irish/British","Agnostic","Female",8,20,6,33835.63,"Fair",13.287002839032,40.9,9.57136934357415,90.5
"279","5c8bdc00302d6c0016a70680",19,3697,2,"UNFAIR",20,58,100,1,"Human","Block 2",22,"Undergraduate Degree (e.g. BSc; MBBS)","English/Welsh/Scottish/Northern Irish/British","Agnostic","Female",8,20,6,33835.63,"Fair",13.287002839032,40.9,9.57136934357415,90.5
"280","5c8bdc00302d6c0016a70680",20,5945,2,"FAIR",20,52,100,1,"Human","Block 2",22,"Undergraduate Degree (e.g. BSc; MBBS)","English/Welsh/Scottish/Northern Irish/British","Agnostic","Female",8,20,6,33835.63,"Fair",13.287002839032,40.9,9.57136934357415,90.5
"281","5c56eb0e59095a0001bac969",1,29882.0450000349,2,"UNFAIR",10,49,100,2,"Human","Block 1",48,"College/Sixth Form (A level or equivalent)","English/Welsh/Scottish/Northern Irish/British","Atheist","Female",0,0,8,49723.11,"Unfair",17.603345641604,39.9,20.0723690679501,89.7
"282","5c56eb0e59095a0001bac969",2,15553.5249999957,2,"UNFAIR",10,46,99,2,"Human","Block 1",48,"College/Sixth Form (A level or equivalent)","English/Welsh/Scottish/Northern Irish/British","Atheist","Female",0,0,8,49723.11,"Unfair",17.603345641604,39.9,20.0723690679501,89.7
"283","5c56eb0e59095a0001bac969",3,18669.9650000082,2,"FAIR",10,1,58,2,"Human","Block 1",48,"College/Sixth Form (A level or equivalent)","English/Welsh/Scottish/Northern Irish/British","Atheist","Female",0,0,8,49723.11,"Unfair",17.603345641604,39.9,20.0723690679501,89.7
"284","5c56eb0e59095a0001bac969",4,5392.17999996617,2,"UNFAIR",10,48,99,2,"Human","Block 1",48,"College/Sixth Form (A level or equivalent)","English/Welsh/Scottish/Northern Irish/British","Atheist","Female",0,0,8,49723.11,"Unfair",17.603345641604,39.9,20.0723690679501,89.7
"285","5c56eb0e59095a0001bac969",5,9153.68000004673,2,"UNFAIR",10,47,99,2,"Human","Block 1",48,"College/Sixth Form (A level or equivalent)","English/Welsh/Scottish/Northern Irish/British","Atheist","Female",0,0,8,49723.11,"Unfair",17.603345641604,39.9,20.0723690679501,89.7
"286","5c56eb0e59095a0001bac969",6,13110.2400000091,2,"FAIR",10,13,46,2,"Human","Block 1",48,"College/Sixth Form (A level or equivalent)","English/Welsh/Scottish/Northern Irish/British","Atheist","Female",0,0,8,49723.11,"Unfair",17.603345641604,39.9,20.0723690679501,89.7
"287","5c56eb0e59095a0001bac969",7,12579.7500000335,2,"UNFAIR",10,49,99,2,"Human","Block 1",48,"College/Sixth Form (A level or equivalent)","English/Welsh/Scottish/Northern Irish/British","Atheist","Female",0,0,8,49723.11,"Unfair",17.603345641604,39.9,20.0723690679501,89.7
"288","5c56eb0e59095a0001bac969",8,6897.8299999726,2,"UNFAIR",10,48,99,2,"Human","Block 1",48,"College/Sixth Form (A level or equivalent)","English/Welsh/Scottish/Northern Irish/British","Atheist","Female",0,0,8,49723.11,"Unfair",17.603345641604,39.9,20.0723690679501,89.7
"289","5c56eb0e59095a0001bac969",9,4746.29999999888,2,"UNFAIR",10,48,99,2,"Human","Block 1",48,"College/Sixth Form (A level or equivalent)","English/Welsh/Scottish/Northern Irish/British","Atheist","Female",0,0,8,49723.11,"Unfair",17.603345641604,39.9,20.0723690679501,89.7
"290","5c56eb0e59095a0001bac969",10,4954.4299999834,2,"UNFAIR",10,50,99,2,"Human","Block 1",48,"College/Sixth Form (A level or equivalent)","English/Welsh/Scottish/Northern Irish/British","Atheist","Female",0,0,8,49723.11,"Unfair",17.603345641604,39.9,20.0723690679501,89.7
"291","5c56eb0e59095a0001bac969",11,6539.02999998536,1,"FAIR",10,2,46,2,"Human","Block 2",48,"College/Sixth Form (A level or equivalent)","English/Welsh/Scottish/Northern Irish/British","Atheist","Female",0,0,8,49723.11,"Unfair",13.6479546697176,7.6,16.8618570217584,52.1
"292","5c56eb0e59095a0001bac969",12,11674.159999995,1,"FAIR",10,6,46,2,"Human","Block 2",48,"College/Sixth Form (A level or equivalent)","English/Welsh/Scottish/Northern Irish/British","Atheist","Female",0,0,8,49723.11,"Unfair",13.6479546697176,7.6,16.8618570217584,52.1
"293","5c56eb0e59095a0001bac969",13,4125.07499998901,1,"FAIR",10,6,47,2,"Human","Block 2",48,"College/Sixth Form (A level or equivalent)","English/Welsh/Scottish/Northern Irish/British","Atheist","Female",0,0,8,49723.11,"Unfair",13.6479546697176,7.6,16.8618570217584,52.1
"294","5c56eb0e59095a0001bac969",14,3262.71499996074,1,"FAIR",10,6,47,2,"Human","Block 2",48,"College/Sixth Form (A level or equivalent)","English/Welsh/Scottish/Northern Irish/British","Atheist","Female",0,0,8,49723.11,"Unfair",13.6479546697176,7.6,16.8618570217584,52.1
"295","5c56eb0e59095a0001bac969",15,3446.83999998961,1,"FAIR",10,4,49,2,"Human","Block 2",48,"College/Sixth Form (A level or equivalent)","English/Welsh/Scottish/Northern Irish/British","Atheist","Female",0,0,8,49723.11,"Unfair",13.6479546697176,7.6,16.8618570217584,52.1
"296","5c56eb0e59095a0001bac969",16,4233.82000002312,1,"UNFAIR",10,2,46,2,"Human","Block 2",48,"College/Sixth Form (A level or equivalent)","English/Welsh/Scottish/Northern Irish/British","Atheist","Female",0,0,8,49723.11,"Unfair",13.6479546697176,7.6,16.8618570217584,52.1
"297","5c56eb0e59095a0001bac969",17,3611.80000001332,1,"FAIR",10,1,48,2,"Human","Block 2",48,"College/Sixth Form (A level or equivalent)","English/Welsh/Scottish/Northern Irish/British","Atheist","Female",0,0,8,49723.11,"Unfair",13.6479546697176,7.6,16.8618570217584,52.1
"298","5c56eb0e59095a0001bac969",18,3840.32000001753,1,"FAIR",10,1,46,2,"Human","Block 2",48,"College/Sixth Form (A level or equivalent)","English/Welsh/Scottish/Northern Irish/British","Atheist","Female",0,0,8,49723.11,"Unfair",13.6479546697176,7.6,16.8618570217584,52.1
"299","5c56eb0e59095a0001bac969",19,3102.60500002187,1,"FAIR",10,2,46,2,"Human","Block 2",48,"College/Sixth Form (A level or equivalent)","English/Welsh/Scottish/Northern Irish/British","Atheist","Female",0,0,8,49723.11,"Unfair",13.6479546697176,7.6,16.8618570217584,52.1
"300","5c56eb0e59095a0001bac969",20,3959.84499994665,1,"UNFAIR",10,46,100,2,"Human","Block 2",48,"College/Sixth Form (A level or equivalent)","English/Welsh/Scottish/Northern Irish/British","Atheist","Female",0,0,8,49723.11,"Unfair",13.6479546697176,7.6,16.8618570217584,52.1
"301","5e808eb795fdc17626bcc164",1,60730,1,"FAIR",0,100,100,1,"Human","Block 1",21,"Undergraduate Degree (e.g. BSc; MBBS)","Any other asian background","Hindu","Female",0,4,8,26273.79,"Fair",31.4289321768618,89,5.69209978830308,96.8
"302","5e808eb795fdc17626bcc164",2,46461,1,"FAIR",0,90,95,1,"Human","Block 1",21,"Undergraduate Degree (e.g. BSc; MBBS)","Any other asian background","Hindu","Female",0,4,8,26273.79,"Fair",31.4289321768618,89,5.69209978830308,96.8
"303","5e808eb795fdc17626bcc164",3,22674,1,"FAIR",0,0,88,1,"Human","Block 1",21,"Undergraduate Degree (e.g. BSc; MBBS)","Any other asian background","Hindu","Female",0,4,8,26273.79,"Fair",31.4289321768618,89,5.69209978830308,96.8
"304","5e808eb795fdc17626bcc164",4,40901,1,"UNFAIR",0,100,85,1,"Human","Block 1",21,"Undergraduate Degree (e.g. BSc; MBBS)","Any other asian background","Hindu","Female",0,4,8,26273.79,"Fair",31.4289321768618,89,5.69209978830308,96.8
"305","5e808eb795fdc17626bcc164",5,20574,1,"FAIR",0,100,100,1,"Human","Block 1",21,"Undergraduate Degree (e.g. BSc; MBBS)","Any other asian background","Hindu","Female",0,4,8,26273.79,"Fair",31.4289321768618,89,5.69209978830308,96.8
"306","5e808eb795fdc17626bcc164",6,24046,1,"FAIR",0,100,100,1,"Human","Block 1",21,"Undergraduate Degree (e.g. BSc; MBBS)","Any other asian background","Hindu","Female",0,4,8,26273.79,"Fair",31.4289321768618,89,5.69209978830308,96.8
"307","5e808eb795fdc17626bcc164",7,14899,1,"FAIR",0,100,100,1,"Human","Block 1",21,"Undergraduate Degree (e.g. BSc; MBBS)","Any other asian background","Hindu","Female",0,4,8,26273.79,"Fair",31.4289321768618,89,5.69209978830308,96.8
"308","5e808eb795fdc17626bcc164",8,23540,1,"FAIR",0,100,100,1,"Human","Block 1",21,"Undergraduate Degree (e.g. BSc; MBBS)","Any other asian background","Hindu","Female",0,4,8,26273.79,"Fair",31.4289321768618,89,5.69209978830308,96.8
"309","5e808eb795fdc17626bcc164",9,25924,1,"UNFAIR",0,100,100,1,"Human","Block 1",21,"Undergraduate Degree (e.g. BSc; MBBS)","Any other asian background","Hindu","Female",0,4,8,26273.79,"Fair",31.4289321768618,89,5.69209978830308,96.8
"310","5e808eb795fdc17626bcc164",10,13476,1,"FAIR",0,100,100,1,"Human","Block 1",21,"Undergraduate Degree (e.g. BSc; MBBS)","Any other asian background","Hindu","Female",0,4,8,26273.79,"Fair",31.4289321768618,89,5.69209978830308,96.8
"311","5e808eb795fdc17626bcc164",11,8692,2,"FAIR",0,100,100,1,"Human","Block 2",21,"Undergraduate Degree (e.g. BSc; MBBS)","Any other asian background","Hindu","Female",0,4,8,26273.79,"Fair",0,100,0,100
"312","5e808eb795fdc17626bcc164",12,6172,2,"UNFAIR",0,100,100,1,"Human","Block 2",21,"Undergraduate Degree (e.g. BSc; MBBS)","Any other asian background","Hindu","Female",0,4,8,26273.79,"Fair",0,100,0,100
"313","5e808eb795fdc17626bcc164",13,4577,2,"UNFAIR",0,100,100,1,"Human","Block 2",21,"Undergraduate Degree (e.g. BSc; MBBS)","Any other asian background","Hindu","Female",0,4,8,26273.79,"Fair",0,100,0,100
"314","5e808eb795fdc17626bcc164",14,8720,2,"UNFAIR",0,100,100,1,"Human","Block 2",21,"Undergraduate Degree (e.g. BSc; MBBS)","Any other asian background","Hindu","Female",0,4,8,26273.79,"Fair",0,100,0,100
"315","5e808eb795fdc17626bcc164",15,3788,2,"UNFAIR",0,100,100,1,"Human","Block 2",21,"Undergraduate Degree (e.g. BSc; MBBS)","Any other asian background","Hindu","Female",0,4,8,26273.79,"Fair",0,100,0,100
"316","5e808eb795fdc17626bcc164",16,28112,2,"UNFAIR",0,100,100,1,"Human","Block 2",21,"Undergraduate Degree (e.g. BSc; MBBS)","Any other asian background","Hindu","Female",0,4,8,26273.79,"Fair",0,100,0,100
"317","5e808eb795fdc17626bcc164",17,25391.9999999999,2,"UNFAIR",0,100,100,1,"Human","Block 2",21,"Undergraduate Degree (e.g. BSc; MBBS)","Any other asian background","Hindu","Female",0,4,8,26273.79,"Fair",0,100,0,100
"318","5e808eb795fdc17626bcc164",18,18244.0000000001,2,"UNFAIR",0,100,100,1,"Human","Block 2",21,"Undergraduate Degree (e.g. BSc; MBBS)","Any other asian background","Hindu","Female",0,4,8,26273.79,"Fair",0,100,0,100
"319","5e808eb795fdc17626bcc164",19,5710.99999999988,2,"FAIR",0,100,100,1,"Human","Block 2",21,"Undergraduate Degree (e.g. BSc; MBBS)","Any other asian background","Hindu","Female",0,4,8,26273.79,"Fair",0,100,0,100
"320","5e808eb795fdc17626bcc164",20,3184,2,"UNFAIR",0,100,100,1,"Human","Block 2",21,"Undergraduate Degree (e.g. BSc; MBBS)","Any other asian background","Hindu","Female",0,4,8,26273.79,"Fair",0,100,0,100
"321","5f666f67b647c2244363a64e",1,17586,2,"UNFAIR",75,10,97,2,"Human","Block 1",24,"Postgraduate Degree (e.g. MA; MSc)","""White""","Christian","Male",0,4,3,35461.8,"Unfair",2.65832027165025,8.2,1.26491106406735,99.4
"322","5f666f67b647c2244363a64e",2,16179,2,"UNFAIR",75,9,97,2,"Human","Block 1",24,"Postgraduate Degree (e.g. MA; MSc)","""White""","Christian","Male",0,4,3,35461.8,"Unfair",2.65832027165025,8.2,1.26491106406735,99.4
"323","5f666f67b647c2244363a64e",3,5552,2,"UNFAIR",75,8,100,2,"Human","Block 1",24,"Postgraduate Degree (e.g. MA; MSc)","""White""","Christian","Male",0,4,3,35461.8,"Unfair",2.65832027165025,8.2,1.26491106406735,99.4
"324","5f666f67b647c2244363a64e",4,13993,2,"UNFAIR",75,8,100,2,"Human","Block 1",24,"Postgraduate Degree (e.g. MA; MSc)","""White""","Christian","Male",0,4,3,35461.8,"Unfair",2.65832027165025,8.2,1.26491106406735,99.4
"325","5f666f67b647c2244363a64e",5,4384,2,"UNFAIR",75,10,100,2,"Human","Block 1",24,"Postgraduate Degree (e.g. MA; MSc)","""White""","Christian","Male",0,4,3,35461.8,"Unfair",2.65832027165025,8.2,1.26491106406735,99.4
"326","5f666f67b647c2244363a64e",6,3536,2,"UNFAIR",75,11,100,2,"Human","Block 1",24,"Postgraduate Degree (e.g. MA; MSc)","""White""","Christian","Male",0,4,3,35461.8,"Unfair",2.65832027165025,8.2,1.26491106406735,99.4
"327","5f666f67b647c2244363a64e",7,5281,2,"UNFAIR",75,9,100,2,"Human","Block 1",24,"Postgraduate Degree (e.g. MA; MSc)","""White""","Christian","Male",0,4,3,35461.8,"Unfair",2.65832027165025,8.2,1.26491106406735,99.4
"328","5f666f67b647c2244363a64e",8,12984,2,"FAIR",75,4,100,2,"Human","Block 1",24,"Postgraduate Degree (e.g. MA; MSc)","""White""","Christian","Male",0,4,3,35461.8,"Unfair",2.65832027165025,8.2,1.26491106406735,99.4
"329","5f666f67b647c2244363a64e",9,6546,2,"UNFAIR",75,10,100,2,"Human","Block 1",24,"Postgraduate Degree (e.g. MA; MSc)","""White""","Christian","Male",0,4,3,35461.8,"Unfair",2.65832027165025,8.2,1.26491106406735,99.4
"330","5f666f67b647c2244363a64e",10,3566,2,"FAIR",75,3,100,2,"Human","Block 1",24,"Postgraduate Degree (e.g. MA; MSc)","""White""","Christian","Male",0,4,3,35461.8,"Unfair",2.65832027165025,8.2,1.26491106406735,99.4
"331","5f666f67b647c2244363a64e",11,4761,1,"FAIR",75,2,100,2,"Human","Block 2",24,"Postgraduate Degree (e.g. MA; MSc)","""White""","Christian","Male",0,4,3,35461.8,"Unfair",1.28668393770792,2.1,1.66332999331662,98.1
"332","5f666f67b647c2244363a64e",12,5797,1,"FAIR",75,2,99,2,"Human","Block 2",24,"Postgraduate Degree (e.g. MA; MSc)","""White""","Christian","Male",0,4,3,35461.8,"Unfair",1.28668393770792,2.1,1.66332999331662,98.1
"333","5f666f67b647c2244363a64e",13,3428,1,"UNFAIR",75,4,97,2,"Human","Block 2",24,"Postgraduate Degree (e.g. MA; MSc)","""White""","Christian","Male",0,4,3,35461.8,"Unfair",1.28668393770792,2.1,1.66332999331662,98.1
"334","5f666f67b647c2244363a64e",14,3272,1,"FAIR",75,3,98,2,"Human","Block 2",24,"Postgraduate Degree (e.g. MA; MSc)","""White""","Christian","Male",0,4,3,35461.8,"Unfair",1.28668393770792,2.1,1.66332999331662,98.1
"335","5f666f67b647c2244363a64e",15,5428,1,"FAIR",75,3,97,2,"Human","Block 2",24,"Postgraduate Degree (e.g. MA; MSc)","""White""","Christian","Male",0,4,3,35461.8,"Unfair",1.28668393770792,2.1,1.66332999331662,98.1
"336","5f666f67b647c2244363a64e",16,2770,1,"FAIR",75,2,97,2,"Human","Block 2",24,"Postgraduate Degree (e.g. MA; MSc)","""White""","Christian","Male",0,4,3,35461.8,"Unfair",1.28668393770792,2.1,1.66332999331662,98.1
"337","5f666f67b647c2244363a64e",17,4207,1,"FAIR",75,0,100,2,"Human","Block 2",24,"Postgraduate Degree (e.g. MA; MSc)","""White""","Christian","Male",0,4,3,35461.8,"Unfair",1.28668393770792,2.1,1.66332999331662,98.1
"338","5f666f67b647c2244363a64e",18,2840,1,"UNFAIR",75,0,100,2,"Human","Block 2",24,"Postgraduate Degree (e.g. MA; MSc)","""White""","Christian","Male",0,4,3,35461.8,"Unfair",1.28668393770792,2.1,1.66332999331662,98.1
"339","5f666f67b647c2244363a64e",19,4096,1,"FAIR",75,3,95,2,"Human","Block 2",24,"Postgraduate Degree (e.g. MA; MSc)","""White""","Christian","Male",0,4,3,35461.8,"Unfair",1.28668393770792,2.1,1.66332999331662,98.1
"340","5f666f67b647c2244363a64e",20,2779,1,"FAIR",75,2,98,2,"Human","Block 2",24,"Postgraduate Degree (e.g. MA; MSc)","""White""","Christian","Male",0,4,3,35461.8,"Unfair",1.28668393770792,2.1,1.66332999331662,98.1
"341","5f3ab128c4b6921312f28237",1,10208,2,"UNFAIR",0,2,97,2,"Human","Block 1",29,"Undergraduate Degree (e.g. BSc; MBBS)","English/Welsh/Scottish/Northern Irish/British","Atheist","Female",4,8,8,69028.7,"Unfair",1.52388392675499,3.1,16.1895027718581,92.9
"342","5f3ab128c4b6921312f28237",2,4687,2,"UNFAIR",0,2,95,2,"Human","Block 1",29,"Undergraduate Degree (e.g. BSc; MBBS)","English/Welsh/Scottish/Northern Irish/British","Atheist","Female",4,8,8,69028.7,"Unfair",1.52388392675499,3.1,16.1895027718581,92.9
"343","5f3ab128c4b6921312f28237",3,4806,2,"UNFAIR",0,4,98,2,"Human","Block 1",29,"Undergraduate Degree (e.g. BSc; MBBS)","English/Welsh/Scottish/Northern Irish/British","Atheist","Female",4,8,8,69028.7,"Unfair",1.52388392675499,3.1,16.1895027718581,92.9
"344","5f3ab128c4b6921312f28237",4,13349,2,"UNFAIR",0,0,100,2,"Human","Block 1",29,"Undergraduate Degree (e.g. BSc; MBBS)","English/Welsh/Scottish/Northern Irish/British","Atheist","Female",4,8,8,69028.7,"Unfair",1.52388392675499,3.1,16.1895027718581,92.9
"345","5f3ab128c4b6921312f28237",5,7056,2,"FAIR",0,4,47,2,"Human","Block 1",29,"Undergraduate Degree (e.g. BSc; MBBS)","English/Welsh/Scottish/Northern Irish/British","Atheist","Female",4,8,8,69028.7,"Unfair",1.52388392675499,3.1,16.1895027718581,92.9
"346","5f3ab128c4b6921312f28237",6,2566,2,"UNFAIR",0,4,98,2,"Human","Block 1",29,"Undergraduate Degree (e.g. BSc; MBBS)","English/Welsh/Scottish/Northern Irish/British","Atheist","Female",4,8,8,69028.7,"Unfair",1.52388392675499,3.1,16.1895027718581,92.9
"347","5f3ab128c4b6921312f28237",7,2726,2,"UNFAIR",0,5,99,2,"Human","Block 1",29,"Undergraduate Degree (e.g. BSc; MBBS)","English/Welsh/Scottish/Northern Irish/British","Atheist","Female",4,8,8,69028.7,"Unfair",1.52388392675499,3.1,16.1895027718581,92.9
"348","5f3ab128c4b6921312f28237",8,2516,2,"UNFAIR",0,2,99,2,"Human","Block 1",29,"Undergraduate Degree (e.g. BSc; MBBS)","English/Welsh/Scottish/Northern Irish/British","Atheist","Female",4,8,8,69028.7,"Unfair",1.52388392675499,3.1,16.1895027718581,92.9
"349","5f3ab128c4b6921312f28237",9,2184,2,"UNFAIR",0,4,97,2,"Human","Block 1",29,"Undergraduate Degree (e.g. BSc; MBBS)","English/Welsh/Scottish/Northern Irish/British","Atheist","Female",4,8,8,69028.7,"Unfair",1.52388392675499,3.1,16.1895027718581,92.9
"350","5f3ab128c4b6921312f28237",10,4210.99999999999,2,"FAIR",0,4,99,2,"Human","Block 1",29,"Undergraduate Degree (e.g. BSc; MBBS)","English/Welsh/Scottish/Northern Irish/British","Atheist","Female",4,8,8,69028.7,"Unfair",1.52388392675499,3.1,16.1895027718581,92.9
"351","5f3ab128c4b6921312f28237",11,4584,1,"UNFAIR",0,7,96,2,"Human","Block 2",29,"Undergraduate Degree (e.g. BSc; MBBS)","English/Welsh/Scottish/Northern Irish/British","Atheist","Female",4,8,8,69028.7,"Unfair",2.83039062871384,4.7,18.6714279641977,61.8
"352","5f3ab128c4b6921312f28237",12,2760,1,"FAIR",0,4,49,2,"Human","Block 2",29,"Undergraduate Degree (e.g. BSc; MBBS)","English/Welsh/Scottish/Northern Irish/British","Atheist","Female",4,8,8,69028.7,"Unfair",2.83039062871384,4.7,18.6714279641977,61.8
"353","5f3ab128c4b6921312f28237",13,2004,1,"FAIR",0,6,53,2,"Human","Block 2",29,"Undergraduate Degree (e.g. BSc; MBBS)","English/Welsh/Scottish/Northern Irish/British","Atheist","Female",4,8,8,69028.7,"Unfair",2.83039062871384,4.7,18.6714279641977,61.8
"354","5f3ab128c4b6921312f28237",14,2153,1,"FAIR",0,2,53,2,"Human","Block 2",29,"Undergraduate Degree (e.g. BSc; MBBS)","English/Welsh/Scottish/Northern Irish/British","Atheist","Female",4,8,8,69028.7,"Unfair",2.83039062871384,4.7,18.6714279641977,61.8
"355","5f3ab128c4b6921312f28237",15,2068.99999999997,1,"FAIR",0,3,57,2,"Human","Block 2",29,"Undergraduate Degree (e.g. BSc; MBBS)","English/Welsh/Scottish/Northern Irish/British","Atheist","Female",4,8,8,69028.7,"Unfair",2.83039062871384,4.7,18.6714279641977,61.8
"356","5f3ab128c4b6921312f28237",16,2008,1,"FAIR",0,1,53,2,"Human","Block 2",29,"Undergraduate Degree (e.g. BSc; MBBS)","English/Welsh/Scottish/Northern Irish/British","Atheist","Female",4,8,8,69028.7,"Unfair",2.83039062871384,4.7,18.6714279641977,61.8
"357","5f3ab128c4b6921312f28237",17,3450,1,"UNFAIR",0,4,98,2,"Human","Block 2",29,"Undergraduate Degree (e.g. BSc; MBBS)","English/Welsh/Scottish/Northern Irish/British","Atheist","Female",4,8,8,69028.7,"Unfair",2.83039062871384,4.7,18.6714279641977,61.8
"358","5f3ab128c4b6921312f28237",18,2488,1,"FAIR",0,5,55,2,"Human","Block 2",29,"Undergraduate Degree (e.g. BSc; MBBS)","English/Welsh/Scottish/Northern Irish/British","Atheist","Female",4,8,8,69028.7,"Unfair",2.83039062871384,4.7,18.6714279641977,61.8
"359","5f3ab128c4b6921312f28237",19,2250,1,"FAIR",0,11,52,2,"Human","Block 2",29,"Undergraduate Degree (e.g. BSc; MBBS)","English/Welsh/Scottish/Northern Irish/British","Atheist","Female",4,8,8,69028.7,"Unfair",2.83039062871384,4.7,18.6714279641977,61.8
"360","5f3ab128c4b6921312f28237",20,2132,1,"FAIR",0,4,52,2,"Human","Block 2",29,"Undergraduate Degree (e.g. BSc; MBBS)","English/Welsh/Scottish/Northern Irish/British","Atheist","Female",4,8,8,69028.7,"Unfair",2.83039062871384,4.7,18.6714279641977,61.8
"361","5ec28a6332a7510637436a57",1,27815.745000029,1,"FAIR",37,25,54,1,"Human","Block 1",44,"Undergraduate Degree (e.g. BSc; MBBS)","English/Welsh/Scottish/Northern Irish/British","Atheist","Female",0,1,3,9359.67,"Fair",29.7816125225691,29.5,10.115444736749,72.1
"362","5ec28a6332a7510637436a57",2,22696.9149999786,1,"FAIR",37,19,63,1,"Human","Block 1",44,"Undergraduate Degree (e.g. BSc; MBBS)","English/Welsh/Scottish/Northern Irish/British","Atheist","Female",0,1,3,9359.67,"Fair",29.7816125225691,29.5,10.115444736749,72.1
"363","5ec28a6332a7510637436a57",3,14277.0750001073,1,"FAIR",37,7,59,1,"Human","Block 1",44,"Undergraduate Degree (e.g. BSc; MBBS)","English/Welsh/Scottish/Northern Irish/British","Atheist","Female",0,1,3,9359.67,"Fair",29.7816125225691,29.5,10.115444736749,72.1
"364","5ec28a6332a7510637436a57",4,4777.0849999506,1,"FAIR",37,10,74,1,"Human","Block 1",44,"Undergraduate Degree (e.g. BSc; MBBS)","English/Welsh/Scottish/Northern Irish/British","Atheist","Female",0,1,3,9359.67,"Fair",29.7816125225691,29.5,10.115444736749,72.1
"365","5ec28a6332a7510637436a57",5,5069.20500006527,1,"FAIR",37,10,73,1,"Human","Block 1",44,"Undergraduate Degree (e.g. BSc; MBBS)","English/Welsh/Scottish/Northern Irish/British","Atheist","Female",0,1,3,9359.67,"Fair",29.7816125225691,29.5,10.115444736749,72.1
"366","5ec28a6332a7510637436a57",6,4534.00999982841,1,"FAIR",37,14,78,1,"Human","Block 1",44,"Undergraduate Degree (e.g. BSc; MBBS)","English/Welsh/Scottish/Northern Irish/British","Atheist","Female",0,1,3,9359.67,"Fair",29.7816125225691,29.5,10.115444736749,72.1
"367","5ec28a6332a7510637436a57",7,4302.57499986328,1,"FAIR",37,12,79,1,"Human","Block 1",44,"Undergraduate Degree (e.g. BSc; MBBS)","English/Welsh/Scottish/Northern Irish/British","Atheist","Female",0,1,3,9359.67,"Fair",29.7816125225691,29.5,10.115444736749,72.1
"368","5ec28a6332a7510637436a57",8,4567.87499994971,1,"FAIR",37,30,77,1,"Human","Block 1",44,"Undergraduate Degree (e.g. BSc; MBBS)","English/Welsh/Scottish/Northern Irish/British","Atheist","Female",0,1,3,9359.67,"Fair",29.7816125225691,29.5,10.115444736749,72.1
"369","5ec28a6332a7510637436a57",9,20501.9050000701,1,"UNFAIR",37,77,78,1,"Human","Block 1",44,"Undergraduate Degree (e.g. BSc; MBBS)","English/Welsh/Scottish/Northern Irish/British","Atheist","Female",0,1,3,9359.67,"Fair",29.7816125225691,29.5,10.115444736749,72.1
"370","5ec28a6332a7510637436a57",10,7248.20000003092,1,"UNFAIR",37,91,86,1,"Human","Block 1",44,"Undergraduate Degree (e.g. BSc; MBBS)","English/Welsh/Scottish/Northern Irish/British","Atheist","Female",0,1,3,9359.67,"Fair",29.7816125225691,29.5,10.115444736749,72.1
"371","5ec28a6332a7510637436a57",11,8452.87999999709,2,"UNFAIR",37,80,84,1,"Human","Block 2",44,"Undergraduate Degree (e.g. BSc; MBBS)","English/Welsh/Scottish/Northern Irish/British","Atheist","Female",0,1,3,9359.67,"Fair",26.2051733654084,78.6,6.93140998963735,87.4
"372","5ec28a6332a7510637436a57",12,8178.11500001699,2,"FAIR",37,16,73,1,"Human","Block 2",44,"Undergraduate Degree (e.g. BSc; MBBS)","English/Welsh/Scottish/Northern Irish/British","Atheist","Female",0,1,3,9359.67,"Fair",26.2051733654084,78.6,6.93140998963735,87.4
"373","5ec28a6332a7510637436a57",13,4192.49499985017,2,"UNFAIR",37,97,87,1,"Human","Block 2",44,"Undergraduate Degree (e.g. BSc; MBBS)","English/Welsh/Scottish/Northern Irish/British","Atheist","Female",0,1,3,9359.67,"Fair",26.2051733654084,78.6,6.93140998963735,87.4
"374","5ec28a6332a7510637436a57",14,4763.55499983765,2,"UNFAIR",37,74,90,1,"Human","Block 2",44,"Undergraduate Degree (e.g. BSc; MBBS)","English/Welsh/Scottish/Northern Irish/British","Atheist","Female",0,1,3,9359.67,"Fair",26.2051733654084,78.6,6.93140998963735,87.4
"375","5ec28a6332a7510637436a57",15,4301.89500004053,2,"UNFAIR",37,93,95,1,"Human","Block 2",44,"Undergraduate Degree (e.g. BSc; MBBS)","English/Welsh/Scottish/Northern Irish/British","Atheist","Female",0,1,3,9359.67,"Fair",26.2051733654084,78.6,6.93140998963735,87.4
"376","5ec28a6332a7510637436a57",16,5543.54500002228,2,"UNFAIR",37,96,92,1,"Human","Block 2",44,"Undergraduate Degree (e.g. BSc; MBBS)","English/Welsh/Scottish/Northern Irish/British","Atheist","Female",0,1,3,9359.67,"Fair",26.2051733654084,78.6,6.93140998963735,87.4
"377","5ec28a6332a7510637436a57",17,4894.00000008754,2,"UNFAIR",37,94,96,1,"Human","Block 2",44,"Undergraduate Degree (e.g. BSc; MBBS)","English/Welsh/Scottish/Northern Irish/British","Atheist","Female",0,1,3,9359.67,"Fair",26.2051733654084,78.6,6.93140998963735,87.4
"378","5ec28a6332a7510637436a57",18,4046.49000009522,2,"UNFAIR",37,94,91,1,"Human","Block 2",44,"Undergraduate Degree (e.g. BSc; MBBS)","English/Welsh/Scottish/Northern Irish/British","Atheist","Female",0,1,3,9359.67,"Fair",26.2051733654084,78.6,6.93140998963735,87.4
"379","5ec28a6332a7510637436a57",19,9168.10000012629,2,"FAIR",37,51,84,1,"Human","Block 2",44,"Undergraduate Degree (e.g. BSc; MBBS)","English/Welsh/Scottish/Northern Irish/British","Atheist","Female",0,1,3,9359.67,"Fair",26.2051733654084,78.6,6.93140998963735,87.4
"380","5ec28a6332a7510637436a57",20,5474.88499991596,2,"UNFAIR",37,91,82,1,"Human","Block 2",44,"Undergraduate Degree (e.g. BSc; MBBS)","English/Welsh/Scottish/Northern Irish/British","Atheist","Female",0,1,3,9359.67,"Fair",26.2051733654084,78.6,6.93140998963735,87.4
"381","5ea01b4b2d7b4d0243d93f78",1,17948.5299999942,2,"FAIR",79,52,49,1,"Human","Block 1",73,"College/Sixth Form (A level or equivalent)","""White""","Agnostic","Male",1,4,0,11535.87,"Unfair",22.2910046630673,76,21.5921796542689,76
"382","5ea01b4b2d7b4d0243d93f78",2,16608.1199999899,2,"UNFAIR",79,71,74,1,"Human","Block 1",73,"College/Sixth Form (A level or equivalent)","""White""","Agnostic","Male",1,4,0,11535.87,"Unfair",22.2910046630673,76,21.5921796542689,76
"383","5ea01b4b2d7b4d0243d93f78",3,14067.1250000014,2,"UNFAIR",79,81,81,1,"Human","Block 1",73,"College/Sixth Form (A level or equivalent)","""White""","Agnostic","Male",1,4,0,11535.87,"Unfair",22.2910046630673,76,21.5921796542689,76
"384","5ea01b4b2d7b4d0243d93f78",4,10444.1449999576,2,"UNFAIR",79,87,86,1,"Human","Block 1",73,"College/Sixth Form (A level or equivalent)","""White""","Agnostic","Male",1,4,0,11535.87,"Unfair",22.2910046630673,76,21.5921796542689,76
"385","5ea01b4b2d7b4d0243d93f78",5,8620.75000000186,2,"UNFAIR",79,99,97,1,"Human","Block 1",73,"College/Sixth Form (A level or equivalent)","""White""","Agnostic","Male",1,4,0,11535.87,"Unfair",22.2910046630673,76,21.5921796542689,76
"386","5ea01b4b2d7b4d0243d93f78",6,12538.7950000004,2,"FAIR",79,25,28,1,"Human","Block 1",73,"College/Sixth Form (A level or equivalent)","""White""","Agnostic","Male",1,4,0,11535.87,"Unfair",22.2910046630673,76,21.5921796542689,76
"387","5ea01b4b2d7b4d0243d93f78",7,9633.16000002669,2,"UNFAIR",79,77,76,1,"Human","Block 1",73,"College/Sixth Form (A level or equivalent)","""White""","Agnostic","Male",1,4,0,11535.87,"Unfair",22.2910046630673,76,21.5921796542689,76
"388","5ea01b4b2d7b4d0243d93f78",8,8792.47500002384,2,"UNFAIR",79,83,85,1,"Human","Block 1",73,"College/Sixth Form (A level or equivalent)","""White""","Agnostic","Male",1,4,0,11535.87,"Unfair",22.2910046630673,76,21.5921796542689,76
"389","5ea01b4b2d7b4d0243d93f78",9,11108.0850000144,2,"UNFAIR",79,92,92,1,"Human","Block 1",73,"College/Sixth Form (A level or equivalent)","""White""","Agnostic","Male",1,4,0,11535.87,"Unfair",22.2910046630673,76,21.5921796542689,76
